event,aX,aY,aZ,gX,gY,gZ
1,0.947,-0.279,-0.185,2.747,-2.319,-0.793
1,0.950,-0.268,-0.128,2.136,-4.150,0.854
1,0.959,-0.260,-0.078,-0.916,-3.601,2.075
1,0.955,-0.265,-0.061,-5.127,0.977,1.709
1,0.949,-0.271,-0.028,-8.850,3.784,2.563
1,0.953,-0.262,-0.004,-21.729,9.521,6.653
1,0.964,-0.208,0.056,-30.579,13.428,8.484
1,0.951,-0.129,0.085,-50.293,24.963,8.240
1,0.934,-0.087,0.081,-61.035,40.161,-1.648
1,0.911,-0.087,-0.005,-57.251,49.316,-11.841
1,0.912,-0.132,-0.094,-45.105,62.744,-31.494
1,0.915,-0.244,-0.266,-42.114,61.340,-37.598
1,0.962,-0.306,-0.266,-36.072,35.583,-39.917
1,1.015,-0.314,-0.187,-31.982,-2.747,-35.889
1,1.078,-0.332,0.033,-31.616,-15.991,-35.156
1,1.061,-0.332,0.134,-35.156,-20.264,-34.607
1,0.941,-0.349,0.245,-35.034,-10.010,-35.828
1,0.865,-0.377,0.231,-31.860,30.029,-36.804
1,0.820,-0.418,0.046,-35.645,51.086,-32.654
1,0.960,-0.406,-0.172,-48.096,66.467,-20.813
1,1.013,-0.402,-0.198,-40.833,41.382,-14.282
1,1.044,-0.403,-0.071,-34.241,26.123,-11.780
1,1.020,-0.398,0.017,-27.649,15.076,-7.202
1,0.940,-0.370,0.089,-24.414,21.179,-5.676
1,0.921,-0.368,-0.019,-15.808,44.189,-8.057
1,0.911,-0.369,-0.078,-5.981,52.124,-10.864
1,0.842,-0.326,-0.063,-0.366,46.692,-9.705
1,0.774,-0.249,0.087,12.512,28.748,-7.263
1,0.740,-0.224,0.170,14.771,17.273,-12.024
1,0.635,-0.238,0.268,15.381,19.653,-19.409
1,0.557,-0.264,0.276,30.640,35.645,-35.095
1,0.394,-0.271,0.256,49.500,43.396,-38.879
1,0.323,-0.252,0.250,43.091,54.871,-38.574
1,0.199,-0.156,0.295,18.860,57.861,-35.034
1,0.161,-0.080,0.341,3.418,53.833,-32.532
1,0.192,0.013,0.458,22.888,43.701,-41.382
1,0.170,0.013,0.427,193.726,29.968,-88.013
1,-0.045,-0.042,0.172,126.282,54.565,-107.605
1,-0.113,0.079,-0.080,9.033,84.717,-94.727
1,-0.092,0.077,-0.132,-61.890,102.417,-86.121
1,-0.062,0.039,-0.153,-59.326,93.750,-86.060
1,-0.057,0.023,-0.167,-65.796,72.937,-84.229
1,-0.047,0.017,-0.175,-64.392,49.377,-82.275
1,-0.033,-0.005,-0.172,-55.176,35.339,-80.383
1,-0.028,-0.014,-0.162,-34.668,7.202,-71.533
1,-0.024,-0.016,-0.144,-22.766,-5.859,-65.674
1,-0.028,-0.013,-0.125,11.536,-31.555,-55.786
1,-0.031,-0.008,-0.113,64.941,-58.960,-48.523
1,-0.055,0.003,-0.082,98.755,-73.486,-45.654
1,-0.077,0.012,-0.062,175.598,-101.379,-41.138
1,-0.128,0.016,-0.014,217.651,-113.342,-40.283
1,-0.153,0.006,0.014,306.885,-131.042,-35.889
1,-0.196,-0.038,0.073,389.404,-136.719,-15.320
1,-0.238,-0.100,0.129,426.575,-134.521,4.272
1,-0.267,-0.138,0.157,491.211,-121.704,69.885
1,-0.358,-0.219,0.214,518.555,-113.037,120.361
1,-0.441,-0.253,0.254,557.251,-94.604,267.639
1,0.703,0.054,0.048,641.174,-91.919,332.031
1,3.900,-2.584,2.726,739.868,-172.485,92.102
1,1.447,-2.546,2.936,-425.659,1466.980,1406.555
1,-4.000,2.612,-3.285,-674.560,1640.442,1522.400
1,-2.971,1.963,-4.000,-490.540,160.706,196.289
1,-0.388,-0.702,-2.155,-339.722,-93.933,-88.257
1,-0.348,-0.677,-0.737,-223.938,20.996,-132.812
1,-0.189,0.065,-0.087,-131.165,49.683,-71.411
1,0.000,0.283,-0.609,14.709,9.216,-3.723
1,-0.086,0.199,-0.821,81.726,-29.846,14.038
1,-0.266,0.008,-1.070,85.205,-37.048,9.644
1,-0.254,0.025,-1.103,46.509,-21.484,-1.892
1,-0.180,0.106,-0.973,11.353,-4.761,-1.953
1,-0.202,0.091,-0.950,-31.860,16.541,4.944
1,-0.242,0.038,-0.991,-27.771,14.282,5.127
1,-0.228,0.039,-1.018,-8.301,2.930,1.709
1,-0.224,0.055,-1.012,-7.996,2.136,1.587
1,-0.223,0.068,-0.982,-25.146,8.606,3.601
1,-0.225,0.058,-0.979,-41.748,14.221,6.592
1,-0.235,0.023,-0.997,-47.180,15.137,7.996
1,-0.240,0.009,-1.003,-57.373,16.418,9.094
1,-0.246,-0.004,-1.000,-63.232,17.578,9.094
1,-0.247,-0.010,-1.000,-83.313,21.973,10.254
1,-0.263,-0.034,-1.015,-100.220,25.696,11.658
1,-0.289,-0.085,-1.020,-142.883,37.964,16.113
1,-0.287,-0.111,-1.026,-166.687,52.551,21.973
1,-0.267,-0.160,-1.007,-174.744,56.274,25.391
1,-0.303,-0.233,-0.947,-194.641,55.908,29.480
1,-0.307,-0.273,-0.926,-195.190,52.856,29.236
1,-0.314,-0.329,-0.862,-187.256,50.476,27.893
1,-0.322,-0.360,-0.829,-152.771,42.847,23.621
1,-0.334,-0.416,-0.786,-130.310,36.438,20.020
1,-0.334,-0.431,-0.768,-76.965,18.860,12.512
1,-0.340,-0.455,-0.759,-15.747,1.038,2.869
1,-0.337,-0.442,-0.797,12.268,-6.653,-1.282
1,-0.338,-0.443,-0.815,45.654,-17.517,-8.179
1,-0.335,-0.425,-0.820,58.960,-22.644,-11.841
1,-0.331,-0.388,-0.834,92.773,-33.691,-17.700
1,-0.334,-0.369,-0.864,115.784,-44.495,-21.057
1,-0.334,-0.328,-0.914,118.530,-48.035,-22.522
1,-0.332,-0.303,-0.929,117.065,-49.011,-23.560
1,-0.323,-0.272,-0.965,112.366,-46.692,-22.766
1,-0.281,-0.239,-1.005,95.459,-37.720,-20.874
1,-0.241,-0.215,-1.007,61.584,-25.879,-17.822
1,-0.233,-0.175,-0.966,46.753,-20.447,-12.817
1,-0.263,-0.186,-0.976,22.583,-8.972,-1.526
1,-0.280,-0.205,-0.992,7.385,-3.113,-0.244
1,-0.271,-0.203,-0.958,-15.930,3.845,0.122
1,-0.272,-0.208,-0.950,-21.057,3.967,0.854
1,-0.274,-0.219,-0.948,-20.020,2.625,0.732
1,-0.273,-0.219,-0.950,-20.447,0.977,0.732
1,-0.273,-0.223,-0.961,-23.376,1.465,1.099
1,-0.278,-0.237,-0.964,-33.875,5.188,2.502
1,-0.282,-0.245,-0.960,-41.443,10.010,4.028
1,-0.279,-0.257,-0.948,-43.762,11.841,4.456
1,-0.278,-0.263,-0.941,-46.021,13.550,4.944
1,-0.285,-0.280,-0.931,-43.823,13.550,5.127
1,-0.289,-0.295,-0.924,-42.419,13.245,5.066
1,-0.291,-0.301,-0.920,-38.513,12.146,4.761
1,-0.295,-0.312,-0.913,-35.828,11.414,4.517
1,-0.297,-0.323,-0.907,-29.724,9.827,4.089
1,-0.298,-0.327,-0.904,-22.644,7.996,3.601
1,-0.301,-0.333,-0.901,-18.677,6.897,3.174
1,-0.301,-0.336,-0.899,-10.010,4.272,2.197
1,-0.302,-0.338,-0.897,-5.249,2.869,1.770
1,-0.302,-0.337,-0.898,3.784,0.122,0.854
1,-0.302,-0.335,-0.901,10.498,-1.892,0.122
1,-0.301,-0.331,-0.909,12.817,-2.502,-0.122
1,-0.301,-0.329,-0.912,14.954,-2.991,-0.244
1,-0.300,-0.324,-0.916,14.832,-2.930,-0.244
1,-0.299,-0.319,-0.919,12.878,-2.380,-0.122
1,-0.299,-0.317,-0.921,9.338,-1.526,0.122
1,-0.299,-0.315,-0.923,7.263,-1.038,0.244
1,-0.299,-0.314,-0.923,2.991,0.000,0.610
1,-0.299,-0.314,-0.923,0.916,0.610,0.916
1,-0.299,-0.315,-0.923,-3.357,1.953,1.587
1,-0.299,-0.315,-0.923,-8.179,3.418,2.136
1,-0.300,-0.319,-0.922,-10.864,4.089,2.380
1,-0.301,-0.322,-0.920,-15.808,5.615,2.930
1,-0.303,-0.328,-0.914,-18.066,6.226,3.174
1,-0.304,-0.331,-0.911,-21.423,6.958,3.357
1,-0.306,-0.338,-0.906,-22.217,7.141,3.357
1,-0.307,-0.341,-0.903,-21.606,6.836,3.235
1,-0.307,-0.349,-0.896,-20.508,6.409,2.991
1,-0.308,-0.356,-0.891,-16.296,4.822,2.380
1,-0.308,-0.359,-0.889,-9.827,2.625,1.404
1,-0.310,-0.360,-0.889,-6.409,1.526,0.916
1,-0.310,-0.360,-0.890,0.122,-0.671,0.183
1,-0.310,-0.358,-0.893,2.747,-1.526,-0.061
1,-0.307,-0.357,-0.894,6.592,-2.686,-0.549
1,-0.307,-0.355,-0.894,10.437,-4.028,-1.099
1,-0.307,-0.351,-0.895,12.451,-4.761,-1.465
1,-0.306,-0.349,-0.897,16.113,-6.104,-1.953
1,-0.304,-0.343,-0.903,17.395,-6.714,-2.258
1,-0.304,-0.336,-0.909,18.494,-7.202,-2.380
1,-0.303,-0.333,-0.913,16.846,-6.653,-2.258
1,-0.299,-0.328,-0.916,15.259,-6.165,-2.136
1,-0.298,-0.326,-0.918,11.658,-4.822,-1.465
1,-0.298,-0.322,-0.921,9.460,-4.028,-1.160
1,-0.297,-0.321,-0.922,4.944,-2.380,-0.549
1,-0.297,-0.321,-0.919,0.732,-1.099,-0.183
1,-0.296,-0.321,-0.918,-0.732,-0.671,0.061
1,-0.296,-0.321,-0.918,-3.113,0.061,0.366
1,-0.296,-0.323,-0.917,-4.089,0.305,0.488
1,-0.297,-0.324,-0.915,-5.005,0.549,0.549
1,-0.297,-0.326,-0.913,-4.883,0.427,0.610
1,-0.297,-0.328,-0.913,-4.700,0.427,0.610
1,-0.297,-0.328,-0.913,-4.272,0.366,0.549
1,-0.297,-0.330,-0.912,-4.089,0.427,0.549
1,-0.297,-0.330,-0.912,-3.723,0.488,0.610
1,-0.297,-0.332,-0.912,-3.418,0.427,0.671
1,-0.297,-0.332,-0.910,-2.441,0.366,0.610
1,-0.297,-0.333,-0.910,-1.343,0.061,0.488
1,-0.297,-0.333,-0.911,-0.916,0.000,0.427
1,-0.297,-0.333,-0.912,-0.305,0.000,0.427
1,-0.297,-0.333,-0.911,-0.183,0.061,0.427
1,-0.297,-0.333,-0.911,-0.061,0.061,0.366
1,-0.297,-0.333,-0.912,0.061,0.061,0.366
1,-0.297,-0.333,-0.911,0.244,0.122,0.427
1,-0.297,-0.333,-0.911,0.244,0.183,0.427
1,-0.298,-0.333,-0.910,0.061,0.244,0.488
1,-0.297,-0.333,-0.911,-0.305,0.366,0.549
1,-0.297,-0.333,-0.912,-0.549,0.427,0.549
1,-0.297,-0.333,-0.912,-1.282,0.732,0.610
1,-0.298,-0.334,-0.912,-2.380,1.099,0.916
1,-0.298,-0.335,-0.910,-2.930,1.282,0.977
1,-0.297,-0.335,-0.910,-4.211,1.709,1.038
1,-0.299,-0.337,-0.911,-4.883,1.892,1.099
1,-0.300,-0.339,-0.910,-6.226,2.136,1.221
1,-0.299,-0.340,-0.908,-6.775,2.258,1.282
1,-0.299,-0.342,-0.907,-6.836,2.319,1.282
1,-0.299,-0.343,-0.906,-6.653,2.136,1.221
1,-0.301,-0.345,-0.904,-6.165,1.892,1.038
1,-0.301,-0.346,-0.903,-4.700,1.282,0.854
1,-0.302,-0.349,-0.902,-3.967,0.977,0.793
1,-0.302,-0.350,-0.902,-2.380,0.549,0.610
1,-0.302,-0.349,-0.902,-0.671,0.122,0.427
1,-0.301,-0.349,-0.902,0.061,-0.122,0.366
1,-0.300,-0.349,-0.902,0.854,-0.427,0.183
1,-0.300,-0.349,-0.902,1.099,-0.488,0.122
1,-0.301,-0.348,-0.903,1.892,-0.671,0.122
1,-0.301,-0.348,-0.904,2.869,-1.038,0.061
1,-0.301,-0.347,-0.905,3.113,-1.160,-0.061
2,0.966,-0.199,-0.165,2.441,2.075,-0.610
2,0.962,-0.198,-0.170,1.770,1.160,-0.549
2,0.959,-0.199,-0.174,1.587,0.732,-0.549
2,0.960,-0.205,-0.177,1.038,-0.732,-0.793
2,0.963,-0.208,-0.153,0.793,-1.282,-0.793
2,0.963,-0.199,-0.148,1.587,-0.305,-1.099
2,0.965,-0.198,-0.150,2.136,0.122,-1.526
2,0.967,-0.203,-0.149,1.587,-1.221,-2.014
2,0.964,-0.204,-0.150,-1.099,-3.052,-0.671
2,0.961,-0.207,-0.159,-2.441,-3.113,0.061
2,0.962,-0.208,-0.166,-3.357,-1.709,1.099
2,0.962,-0.207,-0.159,-1.648,-0.488,2.380
2,0.962,-0.207,-0.151,-1.160,-0.183,3.235
2,0.963,-0.204,-0.155,-2.625,-2.319,3.906
2,0.965,-0.201,-0.141,-4.272,-4.700,3.784
2,0.964,-0.201,-0.131,-7.385,-7.874,4.211
2,0.964,-0.206,-0.135,-8.850,-8.240,5.066
2,0.964,-0.194,-0.145,-10.620,-7.935,6.897
2,0.967,-0.188,-0.150,-9.583,-5.859,6.104
2,0.963,-0.184,-0.159,-7.812,-4.700,5.005
2,0.961,-0.192,-0.163,-2.747,-4.333,3.296
2,0.963,-0.210,-0.146,-2.808,-5.310,3.845
2,0.980,-0.208,-0.107,-7.080,-7.751,6.836
2,0.995,-0.204,-0.092,-14.954,-10.986,7.874
2,1.006,-0.194,-0.055,-19.836,-13.672,7.751
2,0.995,-0.193,-0.037,-28.564,-18.250,8.240
2,0.963,-0.193,-0.017,-32.593,-19.897,9.888
2,0.940,-0.187,-0.010,-32.043,-17.334,14.160
2,0.913,-0.201,-0.000,-27.771,-0.671,17.700
2,0.987,-0.141,-0.075,-28.381,7.690,17.700
2,1.034,-0.116,-0.118,-14.893,7.385,3.601
2,1.099,-0.148,-0.105,-8.789,-1.831,-5.737
2,1.085,-0.193,-0.042,-0.549,-25.024,-17.517
2,1.005,-0.289,0.094,1.587,-32.471,-17.517
2,0.918,-0.304,0.166,-9.094,-28.931,-5.249
2,0.906,-0.272,0.155,-19.287,1.221,10.071
2,0.956,-0.180,0.007,-16.418,16.541,11.963
2,0.999,-0.154,-0.096,1.465,22.827,2.319
2,1.062,-0.137,-0.174,9.277,11.780,-4.333
2,1.045,-0.149,-0.040,16.541,-19.470,-15.259
2,1.043,-0.166,0.036,20.325,-34.119,-20.752
2,1.026,-0.192,0.124,19.104,-33.447,-22.278
2,0.967,-0.213,0.136,19.165,-21.118,-25.330
2,0.955,-0.214,0.117,10.071,-3.174,-24.353
2,0.990,-0.210,0.045,10.864,3.235,-25.513
2,1.012,-0.232,0.008,28.748,5.310,-33.875
2,1.007,-0.291,-0.006,37.415,1.160,-36.438
2,0.991,-0.305,0.015,41.748,-8.179,-32.776
2,0.985,-0.282,0.054,40.833,-10.864,-29.358
2,0.988,-0.237,0.098,43.152,-14.771,-26.855
2,1.000,-0.223,0.122,41.199,-14.099,-33.997
2,0.976,-0.246,0.175,40.649,-11.841,-40.771
2,0.920,-0.276,0.199,51.270,-1.282,-52.063
2,0.809,-0.321,0.207,59.204,7.446,-52.490
2,0.773,-0.330,0.171,77.454,20.996,-46.265
2,0.761,-0.339,0.162,75.806,20.264,-43.152
2,0.727,-0.366,0.198,66.528,16.602,-43.579
2,0.690,-0.386,0.229,80.688,9.155,-48.279
2,0.545,-0.409,0.302,89.050,7.324,-48.340
2,0.446,-0.389,0.342,103.271,10.864,-36.316
2,0.339,-0.275,0.395,108.337,16.541,-28.015
2,0.312,-0.219,0.443,81.848,24.048,-28.564
2,0.294,-0.224,0.481,50.354,28.076,-50.781
2,0.352,-0.315,0.530,38.208,38.513,-70.007
2,0.344,-0.420,0.517,14.893,80.750,-112.305
2,0.060,-0.562,0.417,25.818,103.882,-113.586
2,-0.065,-0.410,0.271,189.270,128.662,-40.344
2,-0.048,0.056,-0.071,230.225,133.789,-2.258
2,-0.117,0.116,-0.127,-25.452,146.912,11.414
2,-0.124,0.062,-0.126,-100.525,147.827,5.005
2,-0.119,0.071,-0.160,-72.632,143.738,0.854
2,-0.112,0.077,-0.176,-75.256,127.625,-10.986
2,-0.084,0.050,-0.186,-75.806,116.882,-20.142
2,-0.072,0.026,-0.181,-82.581,98.511,-31.738
2,-0.044,-0.018,-0.162,-100.708,87.341,-30.823
2,-0.025,-0.050,-0.141,-111.572,84.106,-27.649
2,-0.018,-0.064,-0.131,-129.944,80.505,-19.592
2,-0.001,-0.092,-0.109,-136.292,80.139,-14.832
2,0.008,-0.108,-0.097,-145.325,82.642,-3.296
2,0.031,-0.139,-0.087,-148.865,85.449,3.906
2,0.061,-0.172,-0.087,-152.039,91.919,23.193
2,0.078,-0.188,-0.094,-145.142,95.764,52.307
2,0.097,-0.195,-0.120,-136.047,94.727,71.289
2,0.092,-0.174,-0.135,-102.356,81.360,113.831
2,0.043,-0.070,-0.160,-76.111,67.139,132.874
2,-0.027,0.050,-0.180,10.254,20.386,154.785
2,-0.066,0.099,-0.180,175.171,-56.030,158.081
2,1.640,0.430,-0.159,218.384,-89.844,132.874
2,2.458,0.901,-0.511,-438.415,-174.683,-415.283
2,-1.131,-0.751,-0.985,427.551,-452.270,-1020.508
2,1.499,-4.000,0.554,2000.000,-647.583,-1136.047
2,2.615,-3.809,1.472,1195.740,609.009,949.219
2,-3.627,3.120,-3.157,3.418,1589.477,1733.337
2,-4.000,4.000,-4.000,-110.901,1017.700,406.067
2,-1.655,0.970,-3.466,117.249,389.954,-172.791
2,-0.603,-0.543,-2.098,-288.391,284.424,77.271
2,-0.521,-0.460,-0.449,-360.535,320.801,194.214
2,-0.211,-0.036,-0.207,-179.504,207.886,182.190
2,-0.154,0.182,-0.449,-61.462,121.216,136.658
2,-0.314,0.143,-0.597,-29.297,80.688,114.746
2,-0.340,0.130,-0.563,17.151,22.400,59.082
2,-0.488,0.113,-0.504,26.917,8.362,32.410
2,-0.790,0.079,-0.386,41.809,21.545,-12.634
2,-1.707,-0.052,-0.270,2.014,61.279,-0.488
2,-1.447,0.149,-0.118,-144.775,141.113,62.378
2,-0.209,-0.135,-0.554,-90.149,143.799,65.186
2,-0.624,-0.376,-0.731,26.550,36.743,41.992
2,-0.910,-0.290,-0.450,-33.325,-0.549,11.169
2,-0.795,-0.332,-0.392,-1.648,-15.564,3.418
2,-0.769,-0.277,-0.571,69.885,-30.945,-16.663
2,-0.794,-0.228,-0.704,39.307,-15.198,-9.705
2,-0.783,-0.276,-0.532,-14.404,5.432,4.150
2,-0.783,-0.273,-0.563,4.272,-0.916,0.488
2,-0.784,-0.261,-0.584,3.174,-1.526,-0.122
2,-0.784,-0.263,-0.580,-0.244,0.244,0.610
2,-0.783,-0.266,-0.570,0.549,0.366,0.427
2,-0.785,-0.264,-0.577,2.625,-0.305,-0.305
2,-0.786,-0.262,-0.576,1.831,0.000,0.000
2,-0.783,-0.263,-0.575,1.465,-0.061,0.305
2,-0.782,-0.263,-0.577,1.343,-0.061,0.244
2,-0.783,-0.262,-0.575,1.099,0.061,0.183
2,-0.783,-0.262,-0.576,1.282,-0.122,0.122
2,-0.783,-0.262,-0.578,0.732,-0.122,0.305
2,-0.782,-0.263,-0.577,0.610,-0.061,0.305
2,-0.784,-0.262,-0.577,0.732,-0.061,0.122
2,-0.784,-0.262,-0.576,0.610,-0.061,0.122
2,-0.783,-0.264,-0.577,0.488,-0.183,0.122
2,-0.783,-0.263,-0.577,0.366,-0.122,0.122
2,-0.784,-0.261,-0.576,0.244,-0.061,0.183
2,-0.783,-0.261,-0.575,0.122,-0.122,0.183
2,-0.783,-0.262,-0.576,0.061,-0.183,0.183
2,-0.783,-0.262,-0.577,0.000,-0.183,0.183
2,-0.783,-0.262,-0.577,0.061,-0.122,0.183
2,-0.783,-0.263,-0.577,0.000,-0.122,0.122
2,-0.783,-0.264,-0.577,-0.122,-0.183,0.183
2,-0.782,-0.263,-0.576,-0.122,-0.122,0.122
2,-0.783,-0.262,-0.576,-0.061,-0.122,0.183
2,-0.783,-0.264,-0.577,-0.183,-0.183,0.183
2,-0.784,-0.264,-0.578,-0.183,-0.183,0.122
2,-0.784,-0.264,-0.577,-0.122,-0.183,0.122
2,-0.783,-0.262,-0.577,-0.061,-0.244,0.183
2,-0.784,-0.262,-0.578,-0.122,-0.183,0.244
2,-0.784,-0.262,-0.577,-0.183,-0.122,0.244
2,-0.784,-0.263,-0.578,-0.183,-0.122,0.244
2,-0.783,-0.262,-0.578,-0.183,-0.183,0.244
2,-0.783,-0.262,-0.577,-0.183,-0.183,0.244
2,-0.784,-0.263,-0.577,-0.183,-0.183,0.305
2,-0.783,-0.264,-0.577,-0.122,-0.183,0.244
2,-0.783,-0.264,-0.576,-0.122,-0.122,0.244
2,-0.782,-0.263,-0.577,-0.122,-0.122,0.244
2,-0.782,-0.262,-0.577,-0.061,-0.061,0.183
2,-0.782,-0.262,-0.577,0.000,-0.061,0.183
2,-0.782,-0.263,-0.576,0.061,-0.061,0.183
2,-0.783,-0.264,-0.577,0.122,0.000,0.183
2,-0.783,-0.264,-0.578,0.244,-0.061,0.244
2,-0.782,-0.264,-0.577,0.305,-0.061,0.244
2,-0.782,-0.264,-0.577,0.244,0.000,0.244
2,-0.782,-0.264,-0.577,0.305,0.000,0.122
2,-0.783,-0.262,-0.578,0.305,0.000,0.061
2,-0.783,-0.262,-0.577,0.427,0.000,0.183
2,-0.783,-0.263,-0.577,0.488,0.000,0.183
2,-0.782,-0.263,-0.577,0.427,0.061,0.122
2,-0.781,-0.263,-0.577,0.366,0.000,0.183
2,-0.782,-0.263,-0.576,0.305,-0.061,0.122
2,-0.783,-0.263,-0.577,0.305,-0.061,0.122
2,-0.783,-0.262,-0.579,0.305,0.000,0.122
2,-0.782,-0.262,-0.577,0.244,0.000,0.183
2,-0.782,-0.262,-0.578,0.244,0.000,0.183
2,-0.783,-0.262,-0.578,0.183,-0.061,0.122
2,-0.783,-0.263,-0.578,0.122,0.000,0.122
2,-0.783,-0.263,-0.577,0.122,-0.061,0.183
2,-0.782,-0.262,-0.576,0.000,-0.122,0.305
2,-0.783,-0.263,-0.576,-0.061,-0.122,0.244
2,-0.782,-0.263,-0.577,-0.061,0.000,0.183
2,-0.783,-0.262,-0.578,-0.061,-0.061,0.183
2,-0.782,-0.262,-0.578,-0.061,-0.061,0.244
2,-0.782,-0.262,-0.578,-0.122,-0.061,0.305
2,-0.781,-0.263,-0.578,-0.183,-0.061,0.244
2,-0.782,-0.263,-0.578,-0.122,-0.061,0.183
2,-0.782,-0.262,-0.578,-0.061,-0.061,0.183
2,-0.782,-0.263,-0.579,-0.061,-0.061,0.244
2,-0.782,-0.263,-0.579,-0.061,-0.061,0.183
2,-0.782,-0.264,-0.577,-0.061,-0.061,0.244
2,-0.782,-0.263,-0.577,-0.061,-0.061,0.244
2,-0.782,-0.263,-0.578,-0.061,-0.061,0.244
2,-0.782,-0.264,-0.578,-0.122,-0.061,0.183
2,-0.782,-0.263,-0.578,0.000,0.000,0.122
2,-0.782,-0.264,-0.578,0.061,0.000,0.122
2,-0.782,-0.264,-0.578,0.061,0.000,0.183
2,-0.781,-0.264,-0.577,0.122,0.061,0.244
2,-0.783,-0.263,-0.577,0.122,0.061,0.183
2,-0.782,-0.262,-0.577,0.183,0.061,0.122
2,-0.782,-0.264,-0.577,0.183,-0.061,0.122
2,-0.781,-0.264,-0.577,0.183,-0.061,0.244
2,-0.782,-0.264,-0.577,0.122,0.000,0.244
2,-0.782,-0.263,-0.577,0.061,0.061,0.183
2,-0.781,-0.262,-0.577,0.122,0.061,0.122
2,-0.781,-0.263,-0.578,0.244,0.000,0.122
2,-0.782,-0.264,-0.578,0.183,0.000,0.122
2,-0.781,-0.263,-0.578,0.122,0.000,0.122
3,0.958,-0.220,-0.115,0.183,-1.953,-0.366
3,0.961,-0.231,-0.105,1.221,-1.465,-0.366
3,0.959,-0.244,-0.099,-0.427,-1.099,-0.671
3,0.957,-0.256,-0.088,-2.686,-1.770,-0.793
3,0.959,-0.257,-0.084,-8.118,-4.089,-0.427
3,0.956,-0.259,-0.094,-21.301,-7.324,0.977
3,0.941,-0.265,-0.090,-33.630,-9.766,1.892
3,0.942,-0.271,-0.056,-67.749,-15.930,3.662
3,0.963,-0.266,0.039,-88.989,-18.799,4.883
3,0.957,-0.252,0.062,-122.803,-18.188,8.057
3,0.932,-0.227,0.061,-127.197,-13.611,8.911
3,0.915,-0.214,0.132,-109.375,4.456,4.944
3,0.906,-0.240,0.108,-66.101,28.381,-3.601
3,0.905,-0.291,0.051,-60.730,30.334,-4.517
3,0.907,-0.280,0.116,-85.388,19.836,-2.869
3,0.945,-0.251,0.290,-95.520,18.005,-5.920
3,0.998,-0.285,0.356,-85.937,24.902,-19.287
3,1.079,-0.428,0.312,-65.613,34.729,-22.766
3,1.075,-0.473,0.176,-50.903,58.777,-8.728
3,0.991,-0.380,-0.078,-67.749,63.354,4.028
3,0.937,-0.209,-0.108,-93.872,53.650,13.733
3,0.931,-0.182,-0.070,-90.820,44.556,8.240
3,0.953,-0.193,0.039,-78.064,27.527,-6.775
3,0.970,-0.194,0.090,-74.524,19.470,-14.465
3,0.974,-0.219,0.070,-72.449,20.386,-16.907
3,0.980,-0.287,-0.013,-63.782,24.658,-21.545
3,1.016,-0.444,-0.092,-59.021,19.958,-19.531
3,1.014,-0.456,-0.024,-51.331,0.610,-3.113
3,0.928,-0.279,0.200,-47.607,-6.042,5.798
3,0.829,-0.095,0.272,-30.457,-2.075,7.507
3,0.848,-0.096,0.260,-32.715,7.874,-12.695
3,0.893,-0.161,0.338,-37.231,8.972,-20.386
3,0.858,-0.176,0.374,-31.006,25.513,-26.672
3,0.699,-0.191,0.265,-27.771,41.504,-28.564
3,0.598,-0.182,0.168,-26.855,62.683,-32.410
3,0.434,-0.115,0.120,-30.762,60.852,-43.884
3,0.391,-0.159,0.255,-33.508,58.777,-52.917
3,0.388,-0.215,0.355,-37.109,62.256,-62.073
3,0.327,-0.225,0.682,-43.091,71.045,-59.204
3,0.058,-0.162,0.783,-81.726,111.572,-47.913
3,-0.067,0.006,0.695,-131.531,135.864,-40.833
3,-0.105,0.286,0.432,-206.116,177.734,-51.453
3,-0.138,0.226,0.168,-200.623,219.055,-98.022
3,-0.182,0.051,-0.154,-214.661,222.168,-110.962
3,-0.158,0.043,-0.147,-215.271,202.698,-125.488
3,-0.132,0.029,-0.136,-201.477,192.505,-134.033
3,-0.128,0.013,-0.140,-198.059,172.058,-145.325
3,-0.107,-0.022,-0.146,-203.674,162.781,-148.132
3,-0.088,-0.055,-0.149,-214.600,144.165,-149.963
3,-0.079,-0.069,-0.148,-222.229,123.596,-147.339
3,-0.056,-0.097,-0.148,-224.854,112.610,-144.348
3,-0.041,-0.110,-0.150,-226.135,89.111,-134.644
3,-0.012,-0.134,-0.151,-224.365,76.233,-127.686
3,0.016,-0.151,-0.160,-213.257,46.570,-108.826
3,0.027,-0.155,-0.169,-187.256,9.705,-83.557
3,0.033,-0.140,-0.191,-166.443,-12.817,-69.214
3,0.021,-0.117,-0.204,-103.760,-68.787,-41.443
3,-0.049,-0.021,-0.224,-58.533,-102.539,-32.532
3,-0.168,0.076,-0.238,74.951,-181.763,-39.734
3,-0.223,0.107,-0.245,272.400,-277.893,-88.501
3,0.541,0.214,0.031,284.912,-321.289,-146.729
3,0.286,0.167,0.166,-278.809,-161.316,-316.040
3,-0.623,0.365,-1.464,-302.002,-125.366,-364.075
3,-2.909,0.537,-1.228,1164.734,-792.908,-901.306
3,-3.869,-0.607,-1.179,2000.000,-838.013,-1788.269
3,-2.659,-0.149,-3.676,1293.518,-771.606,-1325.989
3,-0.972,-0.206,-3.626,-347.168,-97.290,115.540
3,-0.058,0.083,-0.774,-199.768,141.296,157.776
3,-0.306,0.016,-0.386,-78.979,112.671,-37.231
3,-0.236,-0.080,-0.545,-168.091,40.771,-6.836
3,-0.032,-0.054,-0.467,-85.815,19.165,5.737
3,-0.163,-0.110,-0.705,69.458,-27.649,4.211
3,-0.317,-0.193,-1.320,86.792,-53.833,2.808
3,-0.159,-0.064,-1.122,70.862,-96.619,-0.610
3,-0.154,-0.059,-0.853,35.278,-69.580,-4.578
3,-0.222,-0.028,-0.695,16.724,-34.119,-1.099
3,-0.205,-0.107,-1.011,-16.907,30.334,-1.343
3,-0.201,-0.136,-1.180,-22.400,33.325,2.441
3,-0.215,-0.068,-1.009,-16.663,15.442,3.662
3,-0.212,-0.066,-0.960,3.540,-8.484,0.061
3,-0.209,-0.094,-0.998,6.897,-10.742,-0.305
3,-0.206,-0.084,-0.971,3.357,-5.493,0.122
3,-0.203,-0.081,-0.980,-0.366,2.502,0.061
3,-0.207,-0.083,-0.997,0.549,0.305,0.061
3,-0.207,-0.086,-0.993,0.793,-0.977,0.305
3,-0.205,-0.086,-0.992,0.977,-1.099,0.793
3,-0.202,-0.085,-0.990,1.404,-0.977,1.038
3,-0.204,-0.086,-0.991,2.319,-0.854,1.892
3,-0.206,-0.082,-0.989,2.075,-0.488,2.869
3,-0.205,-0.078,-0.990,0.610,0.427,2.808
3,-0.205,-0.076,-0.991,0.977,0.488,1.465
3,-0.204,-0.080,-0.991,0.793,0.488,0.549
3,-0.205,-0.083,-0.990,0.854,0.366,-0.183
3,-0.206,-0.082,-0.993,0.977,0.305,-0.061
3,-0.205,-0.081,-0.992,0.854,0.366,0.122
3,-0.205,-0.081,-0.991,0.427,0.244,0.122
3,-0.205,-0.080,-0.992,0.305,0.183,0.061
3,-0.206,-0.080,-0.992,0.305,0.183,0.000
3,-0.207,-0.082,-0.992,0.305,0.183,0.122
3,-0.206,-0.082,-0.993,0.183,0.244,0.183
3,-0.205,-0.081,-0.992,-0.305,0.000,0.183
3,-0.205,-0.080,-0.992,-0.305,-0.183,0.183
3,-0.205,-0.081,-0.992,-0.183,-0.183,0.183
3,-0.206,-0.080,-0.992,-0.244,0.061,0.122
3,-0.206,-0.081,-0.990,-0.244,0.000,0.122
3,-0.205,-0.081,-0.991,-0.244,-0.122,0.244
3,-0.205,-0.081,-0.992,-0.183,-0.183,0.244
3,-0.205,-0.081,-0.992,-0.183,-0.183,0.183
3,-0.205,-0.082,-0.992,-0.122,-0.122,0.183
3,-0.205,-0.082,-0.992,-0.122,-0.061,0.183
3,-0.205,-0.083,-0.992,-0.061,0.061,0.183
3,-0.205,-0.083,-0.992,-0.122,0.000,0.183
3,-0.205,-0.081,-0.992,-0.122,-0.061,0.183
3,-0.205,-0.082,-0.992,-0.061,-0.061,0.122
3,-0.206,-0.081,-0.991,-0.122,0.000,0.183
3,-0.207,-0.081,-0.991,-0.183,0.000,0.183
3,-0.206,-0.082,-0.992,-0.183,-0.061,0.183
3,-0.205,-0.081,-0.991,-0.061,-0.122,0.183
3,-0.205,-0.081,-0.991,-0.122,-0.122,0.183
3,-0.205,-0.082,-0.990,-0.122,-0.122,0.183
3,-0.205,-0.082,-0.991,-0.061,-0.122,0.183
3,-0.204,-0.081,-0.991,-0.122,-0.061,0.183
3,-0.205,-0.082,-0.992,-0.183,-0.061,0.183
3,-0.205,-0.083,-0.992,-0.183,-0.061,0.183
3,-0.205,-0.082,-0.992,-0.244,-0.061,0.183
3,-0.205,-0.082,-0.992,-0.183,0.000,0.122
3,-0.206,-0.082,-0.991,-0.122,-0.061,0.122
3,-0.203,-0.083,-0.991,-0.122,0.000,0.122
3,-0.204,-0.083,-0.991,-0.061,0.061,0.122
3,-0.206,-0.082,-0.991,-0.122,0.000,0.183
3,-0.204,-0.082,-0.992,-0.183,-0.122,0.183
3,-0.204,-0.082,-0.992,-0.183,0.000,0.122
3,-0.204,-0.083,-0.990,-0.183,0.000,0.122
3,-0.204,-0.083,-0.991,-0.244,-0.061,0.122
3,-0.204,-0.083,-0.992,-0.244,-0.061,0.122
3,-0.205,-0.083,-0.990,-0.122,-0.061,0.122
3,-0.206,-0.084,-0.990,-0.061,0.000,0.122
3,-0.205,-0.083,-0.992,-0.061,0.000,0.122
3,-0.204,-0.083,-0.993,-0.061,0.000,0.122
3,-0.205,-0.083,-0.993,-0.122,0.000,0.122
3,-0.206,-0.083,-0.992,0.000,0.000,0.122
3,-0.206,-0.083,-0.992,-0.061,0.122,0.061
3,-0.205,-0.083,-0.990,-0.122,-0.061,0.122
3,-0.205,-0.083,-0.992,0.000,-0.122,0.183
3,-0.205,-0.085,-0.992,-0.122,-0.061,0.122
3,-0.205,-0.084,-0.991,-0.122,-0.061,0.122
3,-0.204,-0.083,-0.990,-0.061,-0.061,0.183
3,-0.205,-0.083,-0.991,-0.061,-0.061,0.122
3,-0.205,-0.083,-0.991,-0.122,0.061,0.061
3,-0.205,-0.083,-0.992,-0.122,0.000,0.061
3,-0.205,-0.084,-0.992,-0.122,0.000,0.122
3,-0.204,-0.084,-0.991,-0.061,0.000,0.122
3,-0.204,-0.083,-0.991,-0.061,-0.061,0.183
3,-0.206,-0.084,-0.992,-0.122,-0.061,0.122
3,-0.205,-0.084,-0.991,-0.122,-0.122,0.061
3,-0.205,-0.084,-0.991,-0.122,-0.122,0.122
3,-0.204,-0.084,-0.991,-0.122,-0.061,0.122
3,-0.204,-0.084,-0.991,-0.122,0.000,0.122
3,-0.204,-0.084,-0.992,-0.122,-0.061,0.122
3,-0.205,-0.083,-0.991,-0.122,-0.061,0.183
3,-0.205,-0.083,-0.991,-0.122,-0.122,0.183
3,-0.204,-0.083,-0.992,-0.122,-0.061,0.122
3,-0.204,-0.084,-0.991,-0.061,0.000,0.122
3,-0.204,-0.084,-0.991,-0.061,0.000,0.122
3,-0.204,-0.084,-0.991,-0.122,0.000,0.122
3,-0.205,-0.085,-0.990,-0.061,0.000,0.122
3,-0.205,-0.084,-0.992,0.000,0.000,0.122
3,-0.204,-0.084,-0.992,-0.061,0.000,0.122
3,-0.205,-0.084,-0.992,0.000,0.000,0.061
3,-0.205,-0.084,-0.991,-0.061,0.000,0.061
3,-0.206,-0.085,-0.991,-0.061,0.000,0.122
3,-0.205,-0.085,-0.992,-0.183,0.000,0.183
3,-0.204,-0.084,-0.992,-0.122,0.061,0.061
3,-0.205,-0.084,-0.990,-0.061,0.000,0.061
3,-0.204,-0.084,-0.991,-0.061,-0.061,0.122
3,-0.204,-0.085,-0.992,-0.061,-0.061,0.122
3,-0.204,-0.084,-0.992,-0.122,-0.061,0.183
3,-0.204,-0.084,-0.993,-0.122,0.000,0.122
3,-0.203,-0.085,-0.992,-0.122,0.000,0.122
3,-0.204,-0.085,-0.991,-0.122,0.000,0.183
3,-0.205,-0.085,-0.992,-0.122,-0.061,0.183
3,-0.204,-0.085,-0.992,-0.061,-0.061,0.183
3,-0.205,-0.085,-0.992,-0.061,-0.061,0.183
3,-0.203,-0.084,-0.990,-0.061,-0.061,0.183
3,-0.203,-0.084,-0.991,-0.061,-0.061,0.122
3,-0.205,-0.084,-0.992,-0.061,0.000,0.122
3,-0.204,-0.085,-0.993,0.000,0.000,0.183
3,-0.205,-0.085,-0.992,0.000,-0.061,0.122
3,-0.204,-0.085,-0.991,-0.061,0.000,0.061
3,-0.204,-0.085,-0.990,-0.122,0.061,0.122
3,-0.204,-0.085,-0.991,-0.122,0.000,0.122
3,-0.204,-0.085,-0.991,-0.061,-0.061,0.183
3,-0.205,-0.084,-0.992,-0.061,-0.061,0.183
3,-0.204,-0.085,-0.991,-0.061,-0.061,0.122
3,-0.204,-0.086,-0.991,-0.061,0.000,0.061
3,-0.203,-0.084,-0.991,-0.122,0.000,0.061
3,-0.204,-0.085,-0.991,-0.122,0.061,0.122
3,-0.204,-0.085,-0.991,-0.061,0.061,0.183
3,-0.204,-0.086,-0.991,0.000,-0.061,0.122
3,-0.204,-0.085,-0.991,-0.061,0.000,0.122
4,0.973,-0.133,-0.124,-0.305,0.122,-1.404
4,0.974,-0.132,-0.120,1.099,-0.916,-1.709
4,0.984,-0.139,-0.109,1.404,-1.282,-1.953
4,0.989,-0.147,-0.103,-0.183,-1.953,-1.953
4,0.995,-0.155,-0.114,-3.113,-4.028,-1.160
4,0.992,-0.150,-0.132,-4.089,-5.798,-0.916
4,0.992,-0.154,-0.123,-5.371,-7.202,0.000
4,0.980,-0.165,-0.094,-7.385,-6.958,1.038
4,0.954,-0.151,-0.075,-13.611,-7.446,3.174
4,0.947,-0.145,-0.066,-19.958,-10.376,3.235
4,0.970,-0.141,-0.041,-23.499,-11.719,2.258
4,0.989,-0.158,-0.029,-44.739,-11.902,0.000
4,0.974,-0.170,-0.028,-58.289,-10.986,0.061
4,0.946,-0.162,-0.056,-70.923,-8.240,1.160
4,0.913,-0.138,-0.083,-76.599,-9.888,0.671
4,0.969,-0.126,0.075,-99.731,-23.010,-3.357
4,1.017,-0.150,0.198,-95.459,-25.696,-7.812
4,1.058,-0.251,0.274,-89.355,-15.442,-6.531
4,1.047,-0.238,0.173,-85.937,8.301,3.418
4,1.006,-0.193,0.104,-38.940,22.583,3.906
4,0.955,-0.132,-0.063,-10.803,22.949,-2.319
4,0.979,-0.149,-0.037,5.554,2.808,-16.541
4,1.045,-0.199,0.174,2.380,-6.592,-19.531
4,1.068,-0.210,0.251,15.869,-5.005,-20.020
4,1.081,-0.220,0.312,32.898,3.052,-20.752
4,1.082,-0.333,0.182,53.528,25.635,-25.208
4,1.073,-0.384,0.097,54.749,35.217,-18.616
4,1.019,-0.345,-0.014,56.396,33.203,-11.597
4,0.959,-0.299,-0.025,59.204,22.339,-1.831
4,0.846,-0.184,0.029,60.120,15.869,-0.854
4,0.823,-0.170,0.099,55.847,6.226,-12.817
4,0.815,-0.276,0.280,49.133,4.761,-18.982
4,0.793,-0.308,0.497,7.385,11.353,-17.639
4,0.740,-0.280,0.608,6.470,35.461,-12.573
4,0.561,-0.163,0.675,21.484,54.504,-13.184
4,0.459,-0.112,0.628,26.794,90.820,-24.109
4,0.269,-0.084,0.515,15.381,103.516,-33.386
4,0.212,-0.174,0.406,-12.939,123.047,-57.922
4,0.280,-0.297,0.355,-36.682,136.841,-81.787
4,0.407,-0.687,0.357,-41.077,139.771,-81.543
4,0.334,-0.797,0.467,-30.823,136.963,-22.461
4,0.121,-0.428,0.798,-48.462,134.766,25.940
4,0.011,0.016,0.542,-171.814,186.890,66.711
4,-0.251,0.266,-0.212,-179.016,219.543,36.133
4,-0.174,0.134,-0.202,-172.302,212.524,-22.705
4,-0.149,0.106,-0.182,-167.664,191.650,-54.871
4,-0.121,0.079,-0.202,-158.386,182.251,-67.993
4,-0.108,0.054,-0.210,-158.630,164.368,-87.341
4,-0.080,0.007,-0.202,-169.250,156.555,-92.041
4,-0.058,-0.029,-0.197,-193.298,143.799,-96.375
4,-0.046,-0.046,-0.194,-212.402,131.287,-98.022
4,-0.022,-0.081,-0.186,-219.299,124.756,-98.083
4,-0.008,-0.101,-0.182,-228.943,112.183,-95.276
4,0.024,-0.141,-0.175,-232.056,106.140,-91.919
4,0.059,-0.179,-0.172,-236.145,93.811,-79.529
4,0.078,-0.199,-0.176,-234.253,79.956,-57.861
4,0.116,-0.233,-0.193,-229.309,71.411,-42.236
4,0.136,-0.229,-0.222,-206.909,47.485,-0.183
4,0.125,-0.198,-0.242,-159.973,6.409,49.316
4,0.056,-0.062,-0.276,-119.202,-23.499,68.420
4,0.291,0.054,-0.297,-59.570,-100.952,66.956
4,0.842,0.268,0.142,-343.567,-98.938,3.784
4,0.179,0.224,-0.519,-469.055,120.972,-235.046
4,-0.538,0.765,-2.217,155.579,-177.429,-423.706
4,-3.095,-0.191,-0.652,1657.471,-983.337,-1398.193
4,-3.278,-1.172,-0.701,2000.000,-528.320,-1938.843
4,-0.886,-0.759,-2.077,1970.642,-331.726,-1561.523
4,-0.824,1.505,-3.568,397.461,-185.120,-103.088
4,-0.694,0.852,-2.964,-284.302,3.113,197.388
4,0.149,-0.440,-0.265,-349.731,112.122,71.533
4,0.171,-0.499,0.129,-245.605,45.776,56.458
4,0.071,-0.338,-0.052,-212.341,42.725,104.248
4,0.027,-0.206,-0.169,-21.667,-5.432,161.499
4,-0.358,0.316,-0.744,116.455,-47.607,144.409
4,-0.707,0.810,-1.579,132.935,-24.963,97.229
4,-0.328,0.694,-1.452,42.297,1.953,58.594
4,-0.143,-0.021,-0.794,-22.278,3.052,-5.798
4,-0.184,-0.042,-0.930,1.526,1.465,-2.075
4,-0.217,0.051,-1.037,3.113,-0.366,1.404
4,-0.201,0.065,-1.003,2.380,-2.686,0.610
4,-0.178,0.076,-0.982,2.197,-2.075,-0.122
4,-0.193,0.073,-1.000,0.854,0.488,-0.183
4,-0.209,0.056,-1.010,-0.427,0.671,0.244
4,-0.197,0.057,-0.998,-0.610,-0.916,0.366
4,-0.193,0.063,-0.995,0.610,-0.977,0.000
4,-0.195,0.067,-1.002,0.732,-0.427,0.000
4,-0.197,0.065,-1.004,0.305,-0.122,0.122
4,-0.198,0.061,-1.002,0.122,-0.244,0.122
4,-0.198,0.060,-1.001,0.183,-0.305,0.000
4,-0.196,0.063,-1.001,0.244,-0.244,0.000
4,-0.197,0.062,-1.002,0.122,-0.122,0.061
4,-0.198,0.061,-1.001,-0.366,0.122,0.183
4,-0.198,0.062,-1.000,-0.488,0.122,0.183
4,-0.197,0.062,-1.001,-0.488,-0.061,0.122
4,-0.197,0.062,-1.002,-0.366,-0.122,0.122
4,-0.197,0.062,-1.002,-0.183,-0.061,0.061
4,-0.196,0.062,-1.001,-0.061,-0.061,0.061
4,-0.197,0.062,-1.002,0.366,-0.122,-0.305
4,-0.197,0.062,-1.003,0.427,-0.244,-0.488
4,-0.197,0.063,-1.000,0.427,-0.305,-0.488
4,-0.197,0.063,-1.000,0.488,-0.305,-0.183
4,-0.196,0.062,-1.002,0.488,-0.183,-0.122
4,-0.197,0.063,-1.002,0.366,-0.183,-0.122
4,-0.198,0.063,-1.002,0.366,-0.183,-0.183
4,-0.197,0.063,-1.002,0.305,-0.183,-0.183
4,-0.197,0.064,-1.002,0.244,-0.183,0.061
4,-0.197,0.062,-1.001,0.122,-0.122,0.122
4,-0.197,0.062,-1.001,0.122,-0.122,0.061
4,-0.196,0.062,-1.002,0.183,-0.061,0.122
4,-0.196,0.062,-1.001,0.061,-0.061,0.183
4,-0.196,0.063,-1.001,0.061,0.061,0.183
4,-0.196,0.063,-1.001,0.122,0.061,0.122
4,-0.195,0.063,-1.002,0.122,-0.061,0.061
4,-0.195,0.063,-1.002,0.122,-0.061,0.000
4,-0.197,0.062,-1.001,0.122,0.000,0.061
4,-0.197,0.062,-1.001,0.122,-0.122,0.122
4,-0.196,0.063,-1.002,0.183,-0.122,0.122
4,-0.196,0.063,-1.003,0.305,-0.183,0.122
4,-0.196,0.063,-1.002,0.305,-0.122,0.061
4,-0.197,0.063,-1.001,0.305,-0.122,0.122
4,-0.197,0.063,-1.002,0.244,-0.122,0.183
4,-0.195,0.063,-1.002,0.183,-0.122,0.122
4,-0.195,0.063,-1.002,0.183,-0.061,0.061
4,-0.197,0.063,-1.002,0.122,0.000,0.122
4,-0.196,0.062,-1.002,0.122,-0.061,0.122
4,-0.195,0.063,-1.002,0.061,0.000,0.122
4,-0.196,0.064,-1.002,0.061,0.000,0.183
4,-0.196,0.064,-1.001,0.000,-0.061,0.122
4,-0.196,0.063,-1.001,0.000,0.000,0.122
4,-0.196,0.062,-1.001,0.000,0.000,0.244
4,-0.196,0.064,-1.001,0.000,0.061,0.244
4,-0.196,0.063,-1.001,-0.122,0.000,0.122
4,-0.197,0.063,-1.001,-0.061,-0.061,0.122
4,-0.197,0.064,-1.002,0.000,0.000,0.122
4,-0.197,0.064,-1.001,0.000,0.000,0.061
4,-0.196,0.063,-1.001,0.000,0.000,0.183
4,-0.196,0.063,-1.001,0.000,0.000,0.183
4,-0.196,0.063,-1.002,-0.061,0.000,0.122
4,-0.197,0.062,-1.001,0.000,0.000,0.122
4,-0.196,0.063,-1.000,0.000,-0.061,0.122
4,-0.196,0.064,-1.001,0.000,-0.061,0.183
4,-0.197,0.064,-1.001,-0.061,-0.061,0.122
4,-0.196,0.064,-1.001,0.000,0.000,0.122
4,-0.195,0.063,-1.000,0.000,0.000,0.061
4,-0.196,0.062,-1.000,-0.061,0.000,0.122
4,-0.195,0.063,-1.001,-0.061,0.000,0.183
4,-0.196,0.062,-1.001,-0.061,-0.061,0.122
4,-0.196,0.062,-1.002,0.000,0.000,0.061
4,-0.196,0.063,-1.002,0.000,0.000,0.122
4,-0.195,0.062,-1.001,0.061,-0.061,0.183
4,-0.195,0.062,-1.001,0.061,-0.061,0.122
4,-0.196,0.063,-1.002,0.061,0.000,0.061
4,-0.195,0.062,-1.002,0.061,-0.061,0.122
4,-0.195,0.063,-1.002,0.061,-0.061,0.183
4,-0.196,0.063,-1.002,0.122,0.000,0.122
4,-0.197,0.064,-1.002,0.061,0.061,0.183
4,-0.196,0.063,-1.002,0.061,0.000,0.122
4,-0.195,0.063,-1.002,-0.061,0.000,0.061
4,-0.195,0.063,-1.002,0.000,0.000,0.122
4,-0.196,0.063,-1.002,0.061,-0.061,0.061
4,-0.196,0.063,-1.001,0.061,-0.061,0.061
4,-0.197,0.063,-1.002,0.061,-0.061,0.061
4,-0.195,0.062,-1.002,0.122,-0.061,0.122
4,-0.195,0.063,-1.001,0.061,0.000,0.122
4,-0.195,0.063,-1.001,0.000,0.061,0.122
4,-0.196,0.063,-1.002,0.061,0.000,0.183
4,-0.195,0.063,-1.002,0.122,0.000,0.122
4,-0.195,0.063,-1.002,0.061,0.061,0.122
4,-0.195,0.063,-1.001,0.061,0.000,0.061
4,-0.194,0.062,-1.002,0.061,0.000,0.122
4,-0.195,0.062,-1.001,0.061,0.000,0.061
4,-0.195,0.062,-1.000,0.000,0.061,0.061
4,-0.196,0.063,-1.001,0.000,0.000,0.122
4,-0.195,0.062,-1.002,0.000,-0.061,0.122
4,-0.195,0.063,-1.001,0.000,0.000,0.122
4,-0.195,0.062,-1.000,0.000,0.000,0.122
4,-0.196,0.062,-1.001,0.000,0.000,0.183
4,-0.195,0.063,-1.001,0.000,-0.061,0.122
4,-0.195,0.063,-1.001,0.000,-0.061,0.061
4,-0.195,0.063,-1.002,0.000,0.000,0.061
4,-0.194,0.063,-1.002,-0.061,0.061,0.183
4,-0.194,0.062,-1.002,-0.061,0.000,0.122
4,-0.195,0.063,-1.001,0.000,-0.061,0.122
4,-0.196,0.062,-1.001,0.000,-0.061,0.122
4,-0.196,0.062,-1.003,0.000,-0.061,0.183
4,-0.196,0.062,-1.003,0.000,-0.061,0.122
4,-0.196,0.062,-1.001,0.000,-0.061,0.122
4,-0.196,0.062,-1.001,0.061,-0.061,0.122
4,-0.195,0.063,-1.001,0.061,-0.061,0.183
4,-0.195,0.063,-1.001,0.122,0.000,0.183
4,-0.196,0.062,-1.001,0.122,0.000,0.122
4,-0.195,0.062,-1.001,0.061,0.000,0.061
4,-0.195,0.062,-1.001,0.061,0.000,0.122
4,-0.196,0.062,-1.001,0.061,0.000,0.061
4,-0.196,0.063,-1.001,0.061,-0.061,0.122
4,-0.195,0.063,-1.001,0.000,0.000,0.122
4,-0.194,0.062,-1.001,0.000,0.000,0.122
4,-0.194,0.062,-1.002,0.061,-0.061,0.122
4,-0.194,0.063,-1.002,0.122,0.000,0.061
4,-0.195,0.063,-1.000,0.061,0.000,0.122
5,0.988,-0.157,-0.075,9.705,-2.319,-2.686
5,0.987,-0.160,-0.077,9.644,-2.136,-2.014
5,0.982,-0.172,-0.066,13.916,-1.465,-1.770
5,0.989,-0.183,-0.045,13.184,-1.404,-1.587
5,0.992,-0.180,-0.046,3.784,-2.319,-1.221
5,0.984,-0.166,-0.051,-2.380,-3.784,-1.648
5,0.977,-0.168,-0.036,-13.184,-5.798,-1.892
5,0.977,-0.174,-0.030,-26.672,-6.531,0.366
5,0.968,-0.179,-0.023,-35.217,-7.385,1.831
5,0.967,-0.177,-0.030,-45.959,-9.094,3.540
5,0.988,-0.168,-0.001,-46.387,-9.705,3.784
5,1.006,-0.171,0.013,-43.945,-10.193,4.883
5,0.993,-0.162,-0.011,-39.063,-10.559,7.751
5,0.970,-0.133,-0.061,-38.513,-11.292,8.667
5,0.983,-0.139,-0.041,-46.631,-17.578,5.798
5,1.023,-0.203,0.095,-56.396,-20.569,5.432
5,1.041,-0.222,0.162,-77.454,-17.151,10.071
5,1.064,-0.264,0.203,-79.224,-10.010,12.817
5,1.005,-0.215,0.152,-78.247,5.615,20.874
5,0.944,-0.136,0.118,-79.407,10.559,23.926
5,0.865,-0.012,0.034,-75.073,12.939,15.930
5,0.889,-0.024,0.042,-65.186,-2.258,-7.324
5,1.010,-0.157,0.236,-60.486,-11.902,-15.808
5,1.080,-0.229,0.397,-51.147,-12.512,-16.785
5,1.074,-0.215,0.365,-23.926,12.390,-10.803
5,1.028,-0.195,0.141,-17.517,21.545,-10.559
5,1.018,-0.211,0.057,-23.499,16.907,-11.658
5,1.015,-0.183,0.048,-28.198,7.690,-9.766
5,1.021,-0.147,0.151,-43.945,-9.033,-5.676
5,1.028,-0.159,0.201,-55.908,-15.015,-6.226
5,1.063,-0.234,0.262,-61.646,-14.221,-6.836
5,1.078,-0.254,0.284,-76.843,-9.277,-1.770
5,1.069,-0.177,0.320,-76.782,-5.676,2.502
5,0.953,-0.071,0.187,-40.466,8.362,4.211
5,0.895,-0.062,0.045,0.122,18.127,-7.324
5,0.879,-0.151,-0.127,11.047,11.780,-13.855
5,0.906,-0.194,-0.068,18.433,-16.235,-16.052
5,0.902,-0.128,0.275,16.174,-26.978,-11.536
5,0.876,-0.060,0.459,11.597,-20.081,-8.423
5,0.833,-0.065,0.652,20.874,19.775,-16.418
5,0.725,-0.131,0.596,29.541,42.786,-16.357
5,0.632,-0.107,0.519,30.151,77.637,-12.695
5,0.416,-0.029,0.365,25.757,87.891,-14.648
5,0.321,0.005,0.312,14.587,100.159,-27.832
5,0.178,0.054,0.302,6.226,103.516,-38.208
5,0.099,0.094,0.463,-15.198,109.192,-62.744
5,0.050,0.134,0.617,-52.612,122.925,-87.158
5,-0.104,0.153,0.955,-70.068,137.817,-99.915
5,-0.176,0.110,1.052,-130.737,191.956,-121.765
5,-0.255,0.146,0.688,-254.456,225.037,-127.197
5,-0.291,0.071,-0.064,-356.079,288.208,-163.879
5,-0.291,0.044,-0.204,-225.220,297.913,-182.861
5,-0.264,0.031,-0.161,-261.963,276.733,-184.631
5,-0.246,0.020,-0.147,-308.105,236.389,-198.303
5,-0.221,-0.007,-0.163,-281.860,219.849,-205.627
5,-0.208,-0.024,-0.162,-264.771,186.829,-212.402
5,-0.175,-0.058,-0.146,-274.170,156.860,-211.609
5,-0.144,-0.083,-0.139,-274.902,143.005,-209.473
5,-0.128,-0.096,-0.138,-272.705,114.197,-201.660
5,-0.094,-0.122,-0.132,-269.287,98.816,-195.068
5,-0.079,-0.132,-0.131,-256.409,66.162,-175.903
5,-0.052,-0.139,-0.136,-232.178,29.602,-150.085
5,-0.039,-0.129,-0.147,-213.745,9.216,-135.559
5,-0.043,-0.114,-0.157,-159.058,-37.537,-106.262
5,-0.086,-0.052,-0.172,-122.131,-64.819,-93.079
5,-0.126,-0.005,-0.170,-20.569,-125.549,-80.627
5,-0.229,0.079,-0.186,48.767,-158.752,-85.388
5,-0.378,0.125,-0.241,227.417,-235.657,-120.117
5,-0.414,0.126,-0.276,450.867,-325.684,-196.655
5,0.328,0.215,-0.274,534.180,-339.355,-275.391
5,0.696,0.179,-0.730,462.158,-292.175,-525.635
5,-1.630,-0.085,-1.681,723.755,-496.582,-683.594
5,-2.102,1.016,-3.920,1006.714,-536.316,-592.834
5,-0.854,0.472,-3.415,-430.298,-26.062,100.525
5,-0.134,-0.446,-0.476,-551.147,49.011,83.862
5,-0.130,-0.315,-0.146,-262.878,108.948,-64.697
5,-0.208,-0.015,-0.429,-184.570,132.690,-70.740
5,-0.119,-0.112,-0.590,-181.030,145.691,-6.775
5,-0.084,-0.203,-0.718,-74.463,91.614,21.362
5,-0.281,-0.333,-0.943,0.793,45.532,15.930
5,-0.315,-0.246,-0.875,83.130,-46.265,-3.052
5,-0.260,-0.221,-0.849,150.696,-110.046,-11.536
5,-0.225,-0.202,-1.025,177.795,-135.742,-10.437
5,-0.200,-0.185,-1.179,123.657,-147.705,1.709
5,-0.192,-0.151,-1.094,67.139,-98.694,5.920
5,-0.165,-0.141,-0.869,-33.569,1.526,3.723
5,-0.164,-0.160,-0.981,-39.124,33.386,-2.197
5,-0.180,-0.183,-1.036,-38.086,30.701,-2.625
5,-0.190,-0.177,-0.966,-24.048,9.521,-1.831
5,-0.186,-0.178,-0.972,0.549,-15.381,2.869
5,-0.173,-0.181,-0.992,2.625,-20.203,4.211
5,-0.173,-0.179,-0.986,0.061,-13.489,3.479
5,-0.174,-0.189,-0.991,-14.221,-5.066,2.930
5,-0.169,-0.191,-0.981,-22.644,1.648,3.540
5,-0.167,-0.195,-0.988,-18.311,0.366,3.601
5,-0.171,-0.201,-0.992,-18.433,-3.418,4.578
5,-0.172,-0.205,-0.985,-27.527,-2.808,9.460
5,-0.165,-0.215,-0.972,-26.733,-2.136,11.414
5,-0.171,-0.219,-0.974,-20.081,-0.549,15.076
5,-0.184,-0.229,-0.981,-21.606,4.395,30.518
5,-0.174,-0.233,-0.976,-20.508,8.423,39.856
5,-0.164,-0.238,-0.976,-13.733,15.259,47.180
5,-0.145,-0.241,-0.932,-0.549,12.939,42.480
5,-0.143,-0.241,-0.940,47.729,3.723,23.560
5,-0.144,-0.268,-0.976,62.012,-3.052,12.756
5,-0.204,-0.392,-0.968,45.715,6.836,30.151
5,-0.211,-0.275,-1.016,-28.320,31.860,84.656
5,-0.161,-0.056,-0.995,-33.142,34.119,78.369
5,-0.159,-0.067,-1.015,-15.869,27.283,44.434
5,-0.187,-0.232,-1.008,-9.399,22.095,46.997
5,-0.175,-0.263,-0.974,-11.719,20.996,70.190
5,-0.188,-0.235,-0.970,-21.545,21.851,73.914
5,-0.216,-0.295,-0.967,-22.766,20.142,62.988
5,-0.196,-0.358,-0.944,-32.837,16.724,43.640
5,-0.179,-0.281,-0.950,-35.461,16.663,44.067
5,-0.182,-0.213,-0.987,-32.227,16.846,40.955
5,-0.191,-0.253,-0.974,-32.837,17.517,34.668
5,-0.215,-0.293,-0.962,-37.415,19.592,36.499
5,-0.204,-0.312,-0.960,-47.363,23.865,43.945
5,-0.190,-0.340,-0.944,-47.241,23.499,40.649
5,-0.178,-0.351,-0.962,-44.006,17.578,22.461
5,-0.196,-0.353,-0.893,-17.395,5.615,9.644
5,-0.198,-0.347,-0.956,19.531,-8.728,-2.441
5,-0.199,-0.344,-0.952,1.038,-1.526,0.183
5,-0.198,-0.349,-0.937,-6.470,1.648,0.366
5,-0.198,-0.351,-0.936,-4.395,1.038,0.061
5,-0.200,-0.350,-0.939,0.366,-0.549,0.305
5,-0.198,-0.346,-0.941,1.343,-0.916,0.366
5,-0.198,-0.348,-0.939,-1.099,0.061,0.122
5,-0.200,-0.352,-0.937,-1.770,0.366,0.122
5,-0.200,-0.352,-0.938,0.916,-0.366,0.183
5,-0.198,-0.350,-0.938,0.671,-0.122,0.122
5,-0.198,-0.349,-0.938,-0.610,0.366,0.061
5,-0.199,-0.349,-0.938,-0.366,0.305,0.061
5,-0.199,-0.350,-0.939,0.549,-0.061,0.122
5,-0.199,-0.349,-0.941,0.488,-0.122,0.061
5,-0.199,-0.349,-0.938,-0.183,0.244,0.122
5,-0.199,-0.349,-0.938,0.122,0.061,0.183
5,-0.199,-0.350,-0.940,0.183,0.000,0.183
5,-0.199,-0.350,-0.940,-0.427,0.183,0.244
5,-0.199,-0.351,-0.939,-0.427,0.183,0.244
5,-0.199,-0.349,-0.940,0.061,-0.061,0.183
5,-0.199,-0.348,-0.940,0.000,-0.061,0.183
5,-0.199,-0.349,-0.937,-0.122,0.061,0.122
5,-0.199,-0.350,-0.938,0.000,0.000,0.122
5,-0.199,-0.350,-0.940,0.183,-0.061,0.183
5,-0.199,-0.350,-0.940,0.122,0.061,0.122
5,-0.200,-0.349,-0.939,-0.061,0.061,0.183
5,-0.198,-0.350,-0.939,-0.061,0.000,0.183
5,-0.198,-0.350,-0.939,0.122,0.000,0.061
5,-0.198,-0.350,-0.938,0.122,-0.061,0.061
5,-0.200,-0.350,-0.938,-0.183,0.000,0.122
5,-0.199,-0.350,-0.939,-0.122,0.000,0.183
5,-0.199,-0.350,-0.938,0.061,-0.061,0.244
5,-0.200,-0.350,-0.939,-0.183,0.000,0.122
5,-0.201,-0.351,-0.939,-0.305,0.000,0.122
5,-0.199,-0.350,-0.939,-0.122,-0.122,0.244
5,-0.199,-0.350,-0.939,-0.061,-0.122,0.244
5,-0.200,-0.350,-0.940,-0.305,-0.122,0.183
5,-0.199,-0.350,-0.939,-0.366,-0.061,0.122
5,-0.199,-0.351,-0.939,-0.183,0.000,0.122
5,-0.199,-0.350,-0.940,-0.122,-0.061,0.122
5,-0.199,-0.350,-0.939,-0.366,-0.061,0.183
5,-0.197,-0.351,-0.937,-0.244,0.000,0.244
5,-0.198,-0.351,-0.938,-0.061,-0.061,0.183
5,-0.198,-0.351,-0.939,-0.122,-0.061,0.183
5,-0.200,-0.351,-0.939,-0.244,-0.061,0.244
5,-0.199,-0.351,-0.939,-0.122,-0.061,0.183
5,-0.198,-0.351,-0.939,-0.183,-0.061,0.122
5,-0.198,-0.352,-0.939,-0.244,0.000,0.122
5,-0.199,-0.351,-0.938,-0.122,0.000,0.183
5,-0.199,-0.351,-0.938,0.061,-0.061,0.244
5,-0.199,-0.352,-0.939,0.000,-0.061,0.183
5,-0.199,-0.352,-0.938,-0.122,0.000,0.061
5,-0.198,-0.351,-0.939,0.000,0.000,0.122
5,-0.198,-0.351,-0.939,0.000,0.000,0.122
5,-0.198,-0.351,-0.937,-0.122,0.000,0.183
5,-0.199,-0.351,-0.937,-0.122,0.000,0.183
5,-0.198,-0.351,-0.938,0.061,-0.061,0.244
5,-0.198,-0.351,-0.940,0.061,-0.061,0.244
5,-0.198,-0.351,-0.937,-0.061,0.000,0.122
5,-0.197,-0.351,-0.937,-0.122,0.061,0.061
5,-0.197,-0.351,-0.939,0.061,0.000,0.122
5,-0.198,-0.351,-0.938,0.122,0.061,0.183
5,-0.199,-0.351,-0.937,0.061,0.061,0.122
5,-0.198,-0.351,-0.938,0.061,0.000,0.122
5,-0.198,-0.351,-0.939,0.244,-0.061,0.244
5,-0.199,-0.352,-0.939,0.122,0.000,0.183
5,-0.199,-0.352,-0.938,0.061,0.000,0.122
5,-0.199,-0.351,-0.937,0.061,0.000,0.183
5,-0.199,-0.351,-0.938,0.122,0.000,0.122
5,-0.199,-0.352,-0.938,0.000,0.000,0.122
5,-0.198,-0.351,-0.938,-0.183,0.061,0.122
5,-0.198,-0.351,-0.938,0.061,0.000,0.122
5,-0.198,-0.350,-0.939,0.122,-0.061,0.122
5,-0.199,-0.350,-0.939,0.000,0.000,0.183
5,-0.199,-0.352,-0.939,-0.122,-0.061,0.122
5,-0.198,-0.351,-0.938,-0.061,-0.061,0.183
5,-0.198,-0.350,-0.937,-0.061,0.000,0.183
5,-0.199,-0.352,-0.938,-0.061,0.000,0.183
6,0.971,-0.239,-0.020,2.258,-6.714,-1.038
6,0.975,-0.239,-0.012,3.601,-4.883,-1.648
6,0.977,-0.241,-0.015,3.418,-3.418,-1.343
6,0.972,-0.240,-0.022,0.549,-4.395,-0.854
6,0.970,-0.239,-0.025,-4.578,-6.531,-0.183
6,0.969,-0.243,-0.004,-5.493,-6.592,-0.122
6,0.973,-0.247,0.016,-7.507,-6.165,0.488
6,0.974,-0.251,0.023,-15.625,-8.057,1.831
6,0.968,-0.251,0.004,-21.301,-9.216,2.319
6,0.959,-0.247,-0.031,-14.343,-8.179,1.648
6,0.953,-0.233,-0.033,-5.249,-7.019,1.587
6,0.961,-0.234,-0.009,1.038,-5.066,2.869
6,0.975,-0.234,0.015,-1.160,-4.456,4.211
6,0.982,-0.238,0.021,-5.127,-4.944,6.226
6,0.983,-0.240,0.027,-9.888,-5.981,6.653
6,0.967,-0.234,0.012,-12.146,-5.798,6.714
6,0.955,-0.236,-0.001,-11.108,-4.944,7.141
6,0.963,-0.241,0.006,-16.174,-5.859,8.118
6,0.971,-0.250,0.061,-23.376,-6.714,8.545
6,0.965,-0.234,0.088,-38.208,-6.714,10.986
6,0.975,-0.217,0.140,-46.753,-6.470,11.414
6,0.985,-0.238,0.165,-87.891,-4.272,12.390
6,0.963,-0.252,0.127,-110.046,-0.854,13.611
6,0.921,-0.242,-0.014,-116.333,4.028,15.869
6,0.938,-0.278,-0.028,-105.286,-3.357,19.531
6,1.004,-0.269,0.115,-108.704,-10.498,26.672
6,1.021,-0.161,0.238,-138.123,-19.409,36.499
6,1.017,-0.016,0.466,-150.757,-15.137,32.349
6,1.027,-0.018,0.524,-172.668,11.780,13.794
6,1.048,-0.111,0.527,-189.453,28.748,5.127
6,1.031,-0.109,0.469,-226.868,57.068,-0.671
6,1.021,-0.049,0.427,-212.524,71.228,-6.531
6,0.991,-0.014,0.291,-188.171,72.571,-15.747
6,0.947,-0.118,0.207,-171.814,64.270,-33.325
6,0.929,-0.143,0.197,-183.350,52.551,-32.715
6,0.939,-0.134,0.188,-182.495,49.011,-29.236
6,0.960,-0.128,0.192,-163.879,45.837,-25.574
6,0.982,-0.123,0.230,-152.466,45.959,-24.963
6,0.964,-0.113,0.255,-132.996,52.429,-21.484
6,0.891,-0.055,0.225,-133.606,65.674,-19.043
6,0.889,0.016,0.157,-137.146,68.848,-20.386
6,0.904,0.024,0.136,-117.859,67.566,-28.198
6,0.889,-0.032,0.065,-106.628,66.162,-33.630
6,0.831,-0.107,0.024,-102.600,66.895,-44.678
6,0.717,-0.253,-0.073,-100.891,67.810,-47.791
6,0.749,-0.172,-0.092,-72.632,58.777,-41.382
6,0.796,-0.054,-0.037,-36.621,39.001,-27.344
6,0.825,0.156,0.052,-28.137,34.668,-25.452
6,0.824,0.101,0.061,-31.128,41.199,-47.791
6,0.745,-0.247,-0.010,-31.799,49.866,-59.814
6,0.587,-0.285,-0.089,-27.710,63.599,-57.678
6,0.515,-0.173,-0.053,-41.016,63.538,-50.232
6,0.336,0.183,0.127,-76.721,63.843,-53.833
6,0.222,0.443,0.295,-268.738,67.383,-82.642
6,0.264,0.565,0.553,-317.017,76.416,-117.249
6,0.149,0.278,0.447,-262.695,106.750,-163.025
6,-0.021,0.308,0.332,-211.243,149.658,-156.921
6,-0.309,0.202,-0.018,-176.575,173.767,-176.147
6,-0.326,0.104,-0.071,-192.993,166.138,-213.684
6,-0.287,0.087,-0.066,-201.965,134.033,-221.558
6,-0.250,0.060,-0.073,-176.453,120.666,-221.008
6,-0.252,0.047,-0.082,-144.226,99.792,-214.722
6,-0.245,0.035,-0.080,-145.630,89.844,-210.205
6,-0.238,0.032,-0.077,-146.240,71.045,-202.332
6,-0.236,0.030,-0.079,-143.005,52.185,-194.641
6,-0.234,0.026,-0.082,-143.005,42.419,-190.674
6,-0.233,0.025,-0.082,-138.245,22.217,-183.655
6,-0.231,0.023,-0.072,-133.179,11.963,-180.542
6,-0.230,0.020,-0.062,-120.361,-7.935,-174.438
6,-0.231,0.015,-0.046,-112.366,-17.578,-171.020
6,-0.243,0.015,-0.039,-91.675,-36.926,-163.818
6,-0.249,0.015,-0.032,-63.293,-56.152,-157.654
6,-0.269,0.016,-0.027,-46.875,-65.735,-155.701
6,-0.284,0.017,-0.033,-6.287,-85.693,-153.748
6,-0.237,0.037,-0.055,66.895,-107.666,-159.668
6,0.951,0.229,0.110,-123.169,-127.930,-187.195
6,0.239,0.095,0.471,-304.687,-82.703,-299.194
6,-1.407,-0.072,0.318,71.533,59.387,-243.652
6,-1.209,-3.475,3.322,-718.811,153.992,125.244
6,-0.298,-4.000,3.026,957.764,66.650,-58.167
6,0.071,-1.189,-0.552,1007.507,38.391,-168.396
6,-0.073,-0.121,-0.850,-280.334,-33.630,32.959
6,-0.135,0.498,-0.374,-374.878,-77.881,142.700
6,-0.276,0.420,-0.105,122.314,-188.538,31.128
6,-0.261,-0.194,0.210,267.578,-216.797,-120.178
6,-0.236,-2.010,0.978,142.944,-181.030,-44.739
6,-0.215,-1.635,0.668,117.310,-107.056,107.849
6,-0.080,-0.673,0.106,208.069,-100.830,103.027
6,-0.067,-0.725,0.100,326.416,-120.300,75.378
6,-0.209,-0.930,0.096,372.192,-123.047,68.298
6,-0.354,-0.960,0.031,451.965,-108.093,32.471
6,-0.141,-1.129,-0.280,364.990,-88.562,-5.371
6,0.015,-1.004,-0.653,213.257,4.211,-61.707
6,0.069,-0.855,-0.632,29.358,-6.897,-30.090
6,0.016,-0.825,-0.542,-28.442,-21.851,-4.517
6,-0.041,-0.889,-0.469,-34.241,-26.550,27.222
6,-0.105,-1.031,-0.333,-20.020,-15.015,25.269
6,-0.100,-1.003,-0.267,-5.310,5.798,0.854
6,-0.105,-0.937,-0.283,18.433,4.028,-8.118
6,-0.112,-0.905,-0.331,13.306,0.854,-3.174
6,-0.111,-0.940,-0.320,-7.874,-1.038,4.089
6,-0.107,-0.969,-0.299,-4.089,-0.854,3.174
6,-0.102,-0.949,-0.323,4.333,0.183,0.122
6,-0.104,-0.949,-0.311,3.967,2.197,-1.099
6,-0.108,-0.946,-0.303,7.019,1.709,-1.465
6,-0.109,-0.943,-0.308,14.099,0.244,-1.831
6,-0.109,-0.939,-0.330,11.536,-0.977,-0.549
6,-0.104,-0.959,-0.311,3.723,-0.732,0.854
6,-0.104,-0.957,-0.295,26.184,0.793,-3.967
6,-0.111,-0.934,-0.333,36.926,-0.732,-5.676
6,-0.111,-0.924,-0.356,29.236,-2.563,-3.906
6,-0.110,-0.941,-0.344,25.208,-1.709,-3.296
6,-0.117,-0.932,-0.361,32.349,-2.319,-5.005
6,-0.121,-0.911,-0.406,7.019,-3.784,-0.793
6,-0.109,-0.935,-0.362,-7.935,0.427,2.258
6,-0.109,-0.946,-0.329,-2.075,0.427,0.977
6,-0.111,-0.927,-0.368,3.845,-0.854,-0.427
6,-0.110,-0.926,-0.368,-0.488,0.183,0.549
6,-0.114,-0.934,-0.354,-0.549,0.122,0.610
6,-0.112,-0.930,-0.363,0.854,-0.061,0.122
6,-0.111,-0.930,-0.360,-0.061,0.122,0.305
6,-0.112,-0.932,-0.358,0.183,0.061,0.244
6,-0.112,-0.932,-0.361,0.305,-0.061,0.244
6,-0.111,-0.931,-0.360,0.000,0.000,0.305
6,-0.111,-0.932,-0.359,0.061,0.061,0.183
6,-0.112,-0.931,-0.359,-0.061,0.000,0.244
6,-0.110,-0.931,-0.359,-0.183,-0.061,0.305
6,-0.111,-0.932,-0.360,-0.244,-0.122,0.305
6,-0.112,-0.931,-0.359,-0.244,-0.061,0.244
6,-0.112,-0.931,-0.359,-0.183,0.000,0.244
6,-0.111,-0.931,-0.359,-0.366,-0.122,0.244
6,-0.111,-0.932,-0.359,-0.366,-0.122,0.244
6,-0.110,-0.932,-0.360,-0.122,-0.122,0.366
6,-0.110,-0.932,-0.360,-0.183,-0.061,0.244
6,-0.112,-0.931,-0.359,-0.061,-0.061,0.122
6,-0.112,-0.931,-0.359,0.000,-0.061,0.244
6,-0.111,-0.931,-0.359,-0.061,-0.061,0.305
6,-0.111,-0.932,-0.357,0.061,-0.061,0.244
6,-0.110,-0.931,-0.353,2.380,-0.366,0.000
6,-0.111,-0.930,-0.358,4.150,-0.854,0.000
6,-0.111,-0.931,-0.370,3.540,-1.099,0.183
6,-0.110,-0.931,-0.367,-0.977,0.244,0.305
6,-0.111,-0.930,-0.358,-0.732,0.305,0.244
6,-0.111,-0.928,-0.361,0.305,-0.183,0.366
6,-0.111,-0.932,-0.361,-0.122,-0.244,0.488
6,-0.110,-0.932,-0.362,0.122,-0.061,0.305
6,-0.110,-0.931,-0.362,0.244,0.000,0.183
6,-0.111,-0.930,-0.362,0.183,-0.061,0.305
6,-0.110,-0.931,-0.361,0.122,-0.061,0.366
6,-0.110,-0.931,-0.361,0.183,-0.061,0.305
6,-0.109,-0.930,-0.361,0.305,0.000,0.244
6,-0.110,-0.931,-0.361,0.183,-0.122,0.244
6,-0.109,-0.932,-0.361,0.183,-0.061,0.244
6,-0.110,-0.931,-0.362,0.244,-0.061,0.244
6,-0.111,-0.931,-0.362,0.244,-0.061,0.183
6,-0.109,-0.931,-0.362,0.244,0.000,0.183
6,-0.109,-0.931,-0.362,0.061,0.061,0.244
6,-0.110,-0.931,-0.362,0.000,0.061,0.244
6,-0.110,-0.931,-0.361,-0.183,0.061,0.244
6,-0.110,-0.931,-0.361,-0.122,0.061,0.244
6,-0.110,-0.930,-0.361,0.000,-0.183,0.366
6,-0.110,-0.932,-0.360,-0.122,-0.122,0.366
6,-0.110,-0.930,-0.362,-0.061,0.000,0.244
6,-0.110,-0.929,-0.362,0.061,0.000,0.183
6,-0.110,-0.931,-0.362,0.000,-0.122,0.244
6,-0.110,-0.931,-0.361,-0.061,-0.061,0.305
6,-0.109,-0.932,-0.361,0.000,0.000,0.244
6,-0.110,-0.931,-0.362,0.000,0.000,0.183
6,-0.110,-0.931,-0.361,-0.122,0.000,0.244
6,-0.109,-0.931,-0.361,-0.122,0.061,0.183
6,-0.109,-0.931,-0.361,-0.122,0.000,0.183
6,-0.110,-0.932,-0.361,-0.061,-0.061,0.183
6,-0.109,-0.931,-0.361,-0.122,-0.061,0.183
6,-0.109,-0.930,-0.361,-0.183,-0.061,0.244
6,-0.110,-0.932,-0.360,-0.183,-0.061,0.244
6,-0.109,-0.931,-0.361,-0.122,0.000,0.244
6,-0.109,-0.931,-0.361,-0.061,-0.061,0.244
6,-0.108,-0.930,-0.360,-0.061,-0.061,0.244
6,-0.109,-0.931,-0.360,-0.061,0.000,0.305
6,-0.110,-0.932,-0.361,-0.061,0.000,0.305
6,-0.108,-0.931,-0.362,0.000,0.000,0.366
6,-0.108,-0.931,-0.362,0.000,-0.122,0.305
6,-0.109,-0.931,-0.360,0.000,-0.061,0.244
6,-0.109,-0.931,-0.361,0.000,0.000,0.305
6,-0.108,-0.931,-0.360,0.000,0.000,0.305
6,-0.109,-0.933,-0.361,0.000,-0.061,0.244
6,-0.109,-0.933,-0.361,0.061,-0.061,0.244
6,-0.108,-0.931,-0.361,0.000,-0.061,0.305
6,-0.108,-0.930,-0.360,-0.061,-0.061,0.366
6,-0.109,-0.932,-0.361,0.000,-0.061,0.305
6,-0.109,-0.932,-0.361,0.122,-0.061,0.305
6,-0.109,-0.931,-0.361,0.061,-0.061,0.244
6,-0.109,-0.932,-0.361,0.000,-0.061,0.244
6,-0.108,-0.933,-0.360,0.061,-0.061,0.244
6,-0.107,-0.931,-0.359,0.061,-0.061,0.244
6,-0.108,-0.931,-0.360,0.061,0.000,0.244
6,-0.108,-0.931,-0.362,0.122,0.000,0.183
6,-0.108,-0.931,-0.361,0.061,0.000,0.183
6,-0.109,-0.931,-0.361,0.061,-0.061,0.183
6,-0.109,-0.931,-0.361,0.000,-0.061,0.244
7,1.000,-0.096,-0.068,-0.610,-2.136,-0.610
7,1.001,-0.098,-0.066,-1.648,-2.075,-0.366
7,0.992,-0.102,-0.073,-3.540,-2.197,-0.305
7,0.994,-0.106,-0.064,-9.583,-5.371,-1.160
7,1.002,-0.117,-0.029,-15.259,-7.446,-2.075
7,1.011,-0.128,-0.008,-34.241,-13.428,-2.197
7,1.019,-0.160,0.066,-49.683,-17.517,0.305
7,0.989,-0.151,0.134,-93.811,-25.879,14.465
7,0.983,-0.145,0.154,-152.893,-39.124,35.706
7,0.988,-0.105,0.214,-194.641,-48.157,47.058
7,0.983,-0.070,0.297,-270.325,-57.556,61.035
7,0.992,0.036,0.532,-272.705,-45.837,59.326
7,1.039,0.127,0.474,-236.023,4.944,36.621
7,1.036,0.157,0.389,-203.796,36.682,7.019
7,1.011,0.180,0.219,-200.806,40.283,-6.348
7,1.029,0.145,0.160,-197.998,27.466,-31.067
7,1.106,-0.051,0.246,-193.604,14.587,-39.917
7,1.052,-0.215,0.455,-200.623,6.348,-35.767
7,0.976,-0.177,0.466,-211.121,18.860,-21.851
7,0.873,0.087,0.255,-214.111,56.885,2.686
7,0.869,0.174,0.120,-359.802,68.115,-4.089
7,0.920,0.148,0.101,-434.265,62.256,-15.198
7,0.929,0.066,0.126,-369.812,56.580,-42.419
7,0.880,-0.104,0.119,-302.002,56.824,-50.964
7,0.807,-0.101,0.093,-291.138,57.861,-45.715
7,0.777,0.016,0.040,-224.670,58.777,-28.503
7,0.821,0.286,-0.149,-198.914,51.819,-23.743
7,0.867,0.321,-0.140,-201.294,17.029,-34.546
7,0.913,0.124,0.125,-196.411,3.113,-48.767
7,0.807,-0.075,0.292,-144.592,7.263,-70.923
7,0.681,-0.043,0.252,-90.393,35.828,-72.632
7,0.398,0.350,-0.029,-86.365,44.922,-69.763
7,0.303,0.643,-0.133,-164.001,28.076,-70.679
7,0.224,1.083,0.042,-225.769,6.226,-82.031
7,0.179,1.154,0.320,-266.113,-21.179,-132.080
7,-0.029,0.902,0.708,-195.190,37.415,-202.393
7,-0.431,0.212,0.156,-108.765,98.083,-247.131
7,-0.482,0.049,-0.058,-54.749,142.639,-288.330
7,-0.409,0.036,-0.070,-147.766,119.568,-283.020
7,-0.360,0.031,-0.035,-263.977,71.167,-267.090
7,-0.338,0.002,-0.035,-167.664,55.969,-253.784
7,-0.333,-0.003,-0.055,-147.766,47.913,-244.751
7,-0.319,-0.001,-0.049,-165.283,26.428,-227.539
7,-0.296,-0.006,-0.041,-165.405,17.273,-220.520
7,-0.289,-0.007,-0.040,-153.137,0.061,-206.848
7,-0.278,-0.006,-0.032,-150.269,-9.216,-200.195
7,-0.269,-0.008,-0.024,-141.052,-28.320,-188.904
7,-0.266,-0.009,-0.019,-123.657,-47.241,-180.054
7,-0.261,-0.011,-0.006,-114.197,-56.763,-176.208
7,-0.262,-0.013,0.003,-93.750,-74.890,-169.312
7,-0.272,-0.013,0.014,-81.665,-83.496,-166.199
7,-0.288,-0.009,0.022,-51.758,-99.915,-162.109
7,-0.301,-0.009,0.024,-16.479,-115.967,-162.292
7,-0.331,-0.008,0.014,4.333,-124.084,-163.574
7,-0.350,-0.006,0.005,55.359,-142.334,-169.373
7,-0.245,0.038,-0.034,91.675,-152.405,-175.598
7,0.566,0.177,0.194,-219.299,-197.083,-217.712
7,-0.496,-0.070,0.617,-208.923,-65.674,-187.683
7,-2.104,-2.048,3.402,-478.394,185.730,151.062
7,-0.391,-0.437,4.000,-483.337,92.651,366.150
7,0.267,0.383,2.047,769.592,8.118,87.830
7,0.028,-0.234,0.193,1441.345,-65.308,-247.986
7,-0.203,-0.093,-0.683,922.546,-120.483,-222.168
7,-0.226,-0.036,0.071,327.209,-226.013,-113.953
7,-0.153,-0.629,0.481,237.854,-212.646,-58.716
7,-0.040,-1.141,0.471,196.838,-174.805,3.174
7,-0.125,-0.953,0.053,321.289,-112.122,50.415
7,-0.199,-0.813,-0.408,316.467,-112.549,55.847
7,-0.248,-0.934,-0.289,195.374,-127.747,60.547
7,-0.188,-1.150,-0.072,174.011,-109.680,41.870
7,-0.171,-1.040,-0.171,123.535,-40.100,-0.061
7,-0.181,-0.970,-0.202,24.048,0.610,-7.385
7,-0.188,-0.948,-0.156,-4.944,6.104,-2.136
7,-0.188,-0.979,-0.125,-2.319,2.197,4.333
7,-0.187,-0.980,-0.122,18.311,0.061,2.258
7,-0.184,-0.971,-0.166,41.992,-1.465,-2.563
7,-0.182,-0.967,-0.201,28.687,-4.639,-2.869
7,-0.191,-0.970,-0.167,3.113,-3.479,-0.916
7,-0.190,-0.970,-0.173,-3.418,0.916,0.977
7,-0.184,-0.970,-0.166,-1.038,0.732,0.671
7,-0.184,-0.969,-0.169,7.446,0.183,-0.061
7,-0.187,-0.969,-0.180,7.690,0.183,0.000
7,-0.187,-0.969,-0.179,2.930,0.305,0.244
7,-0.186,-0.970,-0.174,2.686,0.244,0.244
7,-0.186,-0.969,-0.179,5.310,0.244,0.061
7,-0.187,-0.969,-0.180,4.333,0.305,0.061
7,-0.186,-0.969,-0.180,4.028,0.366,0.061
7,-0.186,-0.968,-0.181,4.089,0.244,0.122
7,-0.187,-0.968,-0.183,4.028,0.244,0.061
7,-0.186,-0.968,-0.184,3.418,0.183,0.061
7,-0.186,-0.968,-0.184,3.113,0.244,0.061
7,-0.187,-0.968,-0.185,3.174,0.244,0.122
7,-0.186,-0.968,-0.186,3.113,0.244,0.122
7,-0.187,-0.968,-0.186,2.625,0.183,0.183
7,-0.185,-0.968,-0.186,2.258,0.183,0.122
7,-0.186,-0.968,-0.187,1.831,0.122,0.122
7,-0.187,-0.968,-0.187,0.916,0.000,0.122
7,-0.187,-0.966,-0.188,0.610,0.000,0.122
7,-0.187,-0.967,-0.187,0.183,0.000,0.122
7,-0.187,-0.967,-0.188,0.000,0.000,0.244
7,-0.186,-0.967,-0.188,-0.488,0.000,0.244
7,-0.186,-0.966,-0.187,-0.671,0.061,0.122
7,-0.187,-0.967,-0.187,-0.671,0.000,0.183
7,-0.186,-0.968,-0.187,-0.671,0.000,0.183
7,-0.186,-0.968,-0.187,-0.671,0.000,0.122
7,-0.187,-0.967,-0.187,-0.549,-0.061,0.183
7,-0.187,-0.967,-0.187,-0.427,-0.061,0.244
7,-0.187,-0.966,-0.185,-0.488,-0.061,0.183
7,-0.186,-0.967,-0.186,-0.549,-0.061,0.122
7,-0.186,-0.967,-0.187,-0.488,-0.061,0.122
7,-0.186,-0.968,-0.184,-0.488,-0.061,0.183
7,-0.186,-0.968,-0.184,-0.549,-0.061,0.183
7,-0.186,-0.967,-0.185,-0.549,-0.061,0.183
7,-0.186,-0.968,-0.186,-0.549,-0.061,0.183
7,-0.186,-0.968,-0.186,-0.549,0.000,0.244
7,-0.186,-0.968,-0.185,-0.610,0.000,0.244
7,-0.186,-0.968,-0.185,-0.610,-0.122,0.183
7,-0.186,-0.968,-0.184,-0.549,-0.061,0.183
7,-0.185,-0.968,-0.185,-0.366,-0.061,0.183
7,-0.186,-0.967,-0.185,-0.366,-0.061,0.183
7,-0.186,-0.968,-0.184,-0.366,-0.061,0.183
7,-0.186,-0.967,-0.184,-0.305,-0.122,0.122
7,-0.186,-0.967,-0.183,-0.244,-0.061,0.244
7,-0.186,-0.966,-0.183,-0.061,0.000,0.183
7,-0.186,-0.967,-0.183,0.000,0.000,0.183
7,-0.186,-0.967,-0.182,-0.061,0.000,0.244
7,-0.186,-0.967,-0.183,0.061,0.000,0.183
7,-0.186,-0.968,-0.185,0.244,-0.061,0.305
7,-0.186,-0.968,-0.184,0.244,0.000,0.305
7,-0.185,-0.968,-0.183,0.244,0.000,0.244
7,-0.185,-0.968,-0.184,0.244,0.061,0.183
7,-0.187,-0.968,-0.185,0.305,0.000,0.183
7,-0.186,-0.968,-0.184,0.366,0.000,0.183
7,-0.186,-0.969,-0.184,0.366,-0.061,0.183
7,-0.187,-0.968,-0.185,0.305,-0.061,0.183
7,-0.186,-0.968,-0.184,0.183,-0.061,0.183
7,-0.185,-0.968,-0.183,0.122,-0.061,0.183
7,-0.185,-0.967,-0.184,0.122,0.000,0.244
7,-0.186,-0.967,-0.185,0.000,0.000,0.244
7,-0.186,-0.967,-0.185,-0.061,-0.061,0.183
7,-0.186,-0.969,-0.185,-0.061,-0.061,0.122
7,-0.185,-0.968,-0.185,-0.122,0.000,0.183
7,-0.186,-0.967,-0.185,-0.122,0.000,0.183
7,-0.186,-0.967,-0.185,-0.122,-0.061,0.244
7,-0.185,-0.967,-0.183,-0.183,-0.061,0.183
7,-0.186,-0.967,-0.184,-0.305,0.000,0.183
7,-0.186,-0.968,-0.185,-0.305,0.000,0.122
7,-0.185,-0.968,-0.185,-0.305,0.000,0.061
7,-0.185,-0.968,-0.184,-0.366,0.061,0.061
7,-0.185,-0.968,-0.184,-0.366,0.000,0.122
7,-0.186,-0.968,-0.185,-0.488,0.000,0.122
7,-0.186,-0.968,-0.184,-0.488,0.000,0.061
7,-0.185,-0.968,-0.183,-0.427,0.000,0.061
7,-0.185,-0.967,-0.183,-0.488,0.061,0.122
7,-0.184,-0.968,-0.182,-0.488,0.061,0.183
7,-0.184,-0.968,-0.183,-0.305,0.000,0.122
7,-0.186,-0.968,-0.184,-0.244,-0.061,0.122
7,-0.186,-0.968,-0.183,-0.305,0.000,0.183
7,-0.185,-0.968,-0.183,-0.305,0.000,0.122
7,-0.185,-0.968,-0.184,-0.244,0.000,0.122
7,-0.185,-0.969,-0.183,-0.244,-0.061,0.244
7,-0.185,-0.968,-0.182,-0.244,0.000,0.244
7,-0.185,-0.968,-0.183,-0.183,0.000,0.183
7,-0.185,-0.968,-0.183,-0.183,-0.061,0.122
7,-0.186,-0.968,-0.183,-0.183,0.000,0.122
7,-0.186,-0.967,-0.183,-0.061,0.000,0.183
7,-0.185,-0.968,-0.182,-0.061,-0.061,0.183
7,-0.186,-0.968,-0.182,-0.122,0.000,0.122
7,-0.185,-0.968,-0.183,0.000,0.000,0.122
7,-0.185,-0.968,-0.183,-0.061,0.000,0.122
7,-0.184,-0.968,-0.183,0.000,0.000,0.183
7,-0.184,-0.969,-0.182,0.061,0.000,0.244
7,-0.185,-0.969,-0.182,0.061,0.000,0.244
7,-0.186,-0.969,-0.182,0.000,0.000,0.183
7,-0.184,-0.968,-0.182,0.061,0.061,0.061
7,-0.184,-0.968,-0.182,0.061,0.000,0.122
7,-0.185,-0.967,-0.182,0.000,0.000,0.183
7,-0.185,-0.967,-0.182,0.061,-0.061,0.183
7,-0.186,-0.969,-0.182,0.061,-0.061,0.183
7,-0.186,-0.968,-0.182,-0.061,0.000,0.183
7,-0.184,-0.968,-0.182,0.000,0.000,0.244
7,-0.185,-0.968,-0.182,-0.061,0.000,0.183
7,-0.184,-0.968,-0.181,-0.061,0.061,0.183
7,-0.185,-0.968,-0.181,-0.061,0.000,0.183
7,-0.185,-0.968,-0.182,-0.122,-0.061,0.122
7,-0.185,-0.968,-0.182,-0.244,0.061,0.183
7,-0.185,-0.968,-0.182,-0.183,0.061,0.183
7,-0.185,-0.968,-0.182,-0.183,0.000,0.183
7,-0.184,-0.968,-0.180,-0.183,0.000,0.122
7,-0.184,-0.968,-0.180,-0.183,0.000,0.183
7,-0.185,-0.968,-0.181,-0.183,-0.061,0.244
7,-0.185,-0.969,-0.182,-0.244,-0.061,0.244
7,-0.186,-0.968,-0.182,-0.244,0.000,0.183
7,-0.185,-0.968,-0.182,-0.183,0.000,0.183
7,-0.184,-0.968,-0.182,-0.183,-0.061,0.183
7,-0.185,-0.968,-0.182,-0.305,0.000,0.183
7,-0.184,-0.969,-0.181,-0.244,0.061,0.122
7,-0.185,-0.968,-0.182,-0.244,0.000,0.122
7,-0.185,-0.968,-0.182,-0.183,0.000,0.122
7,-0.185,-0.968,-0.181,-0.122,0.000,0.183
8,0.975,-0.174,-0.131,4.028,-1.587,-3.235
8,0.973,-0.177,-0.135,0.305,-5.798,-2.441
8,0.974,-0.176,-0.127,-1.892,-10.376,-1.099
8,0.977,-0.177,-0.109,-1.465,-10.437,-0.916
8,0.980,-0.184,-0.109,-1.465,-8.667,-1.648
8,0.990,-0.189,-0.090,-3.052,-9.583,-2.380
8,0.993,-0.205,-0.065,-6.714,-16.235,-3.723
8,0.975,-0.241,-0.023,-27.405,-26.184,6.592
8,0.938,-0.204,-0.028,-46.753,-31.006,16.602
8,0.930,-0.146,-0.038,-98.694,-41.931,35.034
8,0.949,-0.101,0.024,-127.747,-50.354,39.917
8,0.989,-0.151,0.255,-198.853,-63.843,55.298
8,1.006,-0.137,0.351,-267.761,-52.490,77.698
8,1.000,-0.067,0.510,-282.837,-36.194,83.740
8,0.964,0.009,0.522,-294.800,16.724,74.768
8,0.881,0.116,0.383,-321.350,45.898,60.608
8,0.867,0.177,0.119,-310.913,83.618,27.771
8,0.875,0.211,0.019,-216.980,75.134,-1.282
8,0.883,0.225,0.010,-203.552,59.082,-11.780
8,0.879,0.193,0.065,-210.510,28.809,-25.940
8,0.861,0.117,0.198,-203.674,19.226,-30.640
8,0.815,0.101,0.249,-173.584,17.029,-37.048
8,0.687,0.091,0.256,-168.579,24.231,-40.039
8,0.654,0.078,0.204,-195.679,39.368,-42.908
8,0.714,0.064,0.101,-217.529,38.391,-38.696
8,0.768,0.136,0.154,-249.451,24.170,-23.132
8,0.746,0.194,0.197,-257.935,14.709,-16.235
8,0.624,0.300,0.264,-247.009,13.245,-20.813
8,0.540,0.341,0.281,-190.674,18.188,-42.175
8,0.378,0.416,0.244,-164.978,23.437,-55.298
8,0.286,0.457,0.195,-166.748,27.832,-76.599
8,0.144,0.614,0.125,-196.838,23.560,-78.491
8,0.054,0.843,0.237,-340.088,1.038,-64.392
8,-0.137,0.782,0.288,-434.631,0.000,-74.341
8,-0.432,0.244,0.103,-302.063,64.880,-206.299
8,-0.424,0.132,0.013,-39.612,91.919,-283.508
8,-0.384,0.061,-0.022,-69.702,79.895,-286.255
8,-0.351,0.039,-0.004,-211.487,48.218,-266.296
8,-0.331,0.011,-0.004,-194.153,40.588,-258.118
8,-0.318,0.005,-0.017,-122.925,29.358,-242.859
8,-0.305,0.005,-0.015,-125.916,14.709,-226.868
8,-0.289,0.003,-0.017,-125.122,7.751,-220.093
8,-0.285,0.002,-0.017,-111.267,-6.958,-208.252
8,-0.282,0.002,-0.016,-105.225,-15.015,-202.820
8,-0.280,0.003,-0.015,-87.158,-32.104,-194.336
8,-0.280,0.003,-0.014,-57.129,-50.354,-189.514
8,-0.287,0.001,-0.015,-39.368,-59.998,-188.293
8,-0.305,0.004,-0.017,3.723,-80.200,-188.110
8,-0.319,0.005,-0.019,59.204,-101.318,-193.604
8,-0.354,0.005,-0.031,93.018,-112.305,-199.280
8,-0.278,0.034,-0.048,165.466,-132.507,-220.154
8,0.765,0.151,0.107,-81.604,-153.625,-251.343
8,-0.212,-0.013,0.430,-66.101,-65.674,-310.059
8,-0.800,0.102,-0.124,106.262,61.829,-264.648
8,-1.953,-3.244,2.851,-792.358,-83.008,-399.414
8,-1.497,-3.610,2.164,1094.849,58.228,-151.550
8,0.313,-0.704,-1.633,1058.044,75.562,-32.654
8,0.340,-0.031,-1.156,-326.904,-134.277,93.628
8,-0.204,0.173,0.401,-433.411,-184.998,105.408
8,-0.257,-0.470,0.868,-9.521,-176.697,33.630
8,-0.150,-1.060,0.413,261.353,-163.086,-5.859
8,-0.157,-1.227,0.047,272.705,-152.161,4.639
8,-0.126,-0.963,0.040,266.602,-124.207,30.273
8,-0.131,-0.758,-0.076,291.199,-123.840,38.574
8,-0.111,-1.015,-0.089,352.539,-123.657,42.969
8,-0.071,-1.045,-0.167,385.315,-97.168,23.743
8,-0.081,-0.971,-0.444,376.587,-84.900,12.817
8,-0.062,-1.030,-0.532,284.119,-63.843,-37.170
8,-0.074,-0.872,-0.639,199.097,-53.406,-54.993
8,-0.158,-0.738,-0.611,-31.860,-26.794,-7.141
8,-0.117,-0.902,-0.418,-131.592,-2.502,33.813
8,-0.066,-1.016,-0.290,-61.890,0.671,18.433
8,-0.085,-0.884,-0.433,37.598,0.732,-6.470
8,-0.096,-0.878,-0.419,22.522,0.244,-4.456
8,-0.105,-0.913,-0.400,-2.136,0.122,0.671
8,-0.096,-0.921,-0.405,-2.563,-0.183,1.587
8,-0.088,-0.931,-0.401,-2.136,-0.305,1.587
8,-0.091,-0.928,-0.402,1.343,-0.122,0.488
8,-0.095,-0.905,-0.403,1.709,0.000,0.244
8,-0.093,-0.913,-0.401,0.244,-0.061,0.549
8,-0.092,-0.921,-0.402,0.061,-0.122,0.732
8,-0.091,-0.920,-0.402,0.427,-0.122,0.610
8,-0.093,-0.917,-0.403,0.732,-0.122,0.488
8,-0.093,-0.913,-0.404,0.488,-0.061,0.488
8,-0.091,-0.916,-0.403,0.122,0.000,0.549
8,-0.092,-0.916,-0.402,0.122,-0.061,0.549
8,-0.093,-0.916,-0.402,0.183,0.000,0.488
8,-0.093,-0.915,-0.403,-0.122,-0.061,0.427
8,-0.092,-0.917,-0.402,0.000,-0.061,0.427
8,-0.093,-0.917,-0.400,0.427,-0.061,0.366
8,-0.093,-0.915,-0.397,4.761,-0.183,-0.122
8,-0.092,-0.915,-0.409,6.042,-0.183,-0.305
8,-0.092,-0.918,-0.411,0.854,-0.183,0.244
8,-0.092,-0.914,-0.403,-0.427,-0.122,0.366
8,-0.092,-0.913,-0.406,1.099,0.061,0.183
8,-0.092,-0.914,-0.407,0.122,-0.061,0.549
8,-0.091,-0.916,-0.405,-0.183,-0.122,0.488
8,-0.092,-0.916,-0.406,0.122,-0.122,0.366
8,-0.093,-0.914,-0.405,0.122,-0.061,0.366
8,-0.093,-0.913,-0.406,0.061,-0.061,0.366
8,-0.091,-0.916,-0.406,0.061,-0.122,0.366
8,-0.092,-0.915,-0.407,0.122,-0.061,0.305
8,-0.092,-0.915,-0.406,0.061,-0.061,0.366
8,-0.091,-0.915,-0.405,0.000,-0.061,0.366
8,-0.091,-0.916,-0.406,-0.122,-0.061,0.366
8,-0.091,-0.916,-0.407,-0.061,-0.061,0.305
8,-0.092,-0.915,-0.407,0.000,-0.061,0.305
8,-0.092,-0.914,-0.406,0.000,-0.061,0.366
8,-0.091,-0.915,-0.406,-0.061,-0.061,0.366
8,-0.091,-0.915,-0.406,-0.183,-0.061,0.305
8,-0.091,-0.914,-0.406,-0.122,-0.061,0.305
8,-0.090,-0.914,-0.405,-0.122,-0.061,0.305
8,-0.091,-0.914,-0.405,-0.061,-0.061,0.305
8,-0.092,-0.915,-0.406,0.000,-0.061,0.366
8,-0.091,-0.915,-0.406,0.000,-0.061,0.366
8,-0.091,-0.916,-0.405,0.061,0.000,0.366
8,-0.090,-0.916,-0.405,0.061,-0.061,0.366
8,-0.089,-0.915,-0.406,0.000,-0.061,0.366
8,-0.091,-0.916,-0.406,0.000,-0.122,0.305
8,-0.090,-0.916,-0.405,-0.061,0.000,0.305
8,-0.091,-0.916,-0.406,-0.122,0.000,0.305
8,-0.091,-0.916,-0.406,-0.061,0.000,0.305
8,-0.091,-0.915,-0.406,0.000,-0.061,0.366
8,-0.091,-0.916,-0.405,0.000,-0.061,0.366
8,-0.090,-0.916,-0.406,0.000,-0.122,0.305
8,-0.090,-0.916,-0.406,0.122,-0.061,0.366
8,-0.091,-0.915,-0.405,0.061,-0.061,0.366
8,-0.091,-0.915,-0.405,0.000,-0.122,0.305
8,-0.089,-0.916,-0.405,-0.061,-0.122,0.244
8,-0.090,-0.915,-0.406,0.000,-0.061,0.244
8,-0.090,-0.915,-0.406,0.000,0.000,0.305
8,-0.091,-0.916,-0.405,-0.061,0.000,0.305
8,-0.090,-0.916,-0.405,-0.061,-0.061,0.244
8,-0.090,-0.916,-0.405,-0.061,0.000,0.244
8,-0.090,-0.916,-0.405,0.000,0.000,0.366
8,-0.090,-0.916,-0.405,0.000,0.000,0.305
8,-0.090,-0.916,-0.404,0.000,0.000,0.305
8,-0.090,-0.916,-0.404,0.000,-0.061,0.305
8,-0.089,-0.915,-0.405,0.000,-0.061,0.305
8,-0.090,-0.916,-0.406,0.000,-0.061,0.244
8,-0.090,-0.916,-0.405,0.000,0.000,0.183
8,-0.090,-0.915,-0.405,-0.061,0.000,0.183
8,-0.089,-0.916,-0.405,-0.061,0.000,0.305
8,-0.089,-0.915,-0.405,-0.061,0.000,0.305
8,-0.090,-0.917,-0.406,0.000,0.000,0.305
8,-0.090,-0.917,-0.406,0.000,-0.061,0.366
8,-0.090,-0.917,-0.405,0.000,-0.061,0.305
8,-0.089,-0.917,-0.405,0.000,-0.061,0.305
8,-0.089,-0.915,-0.406,-0.061,-0.061,0.305
8,-0.090,-0.916,-0.406,-0.061,0.000,0.305
8,-0.089,-0.917,-0.405,-0.061,0.061,0.305
8,-0.089,-0.916,-0.406,0.061,0.061,0.244
8,-0.090,-0.916,-0.406,-0.061,-0.061,0.183
8,-0.089,-0.916,-0.405,-0.061,-0.061,0.244
8,-0.089,-0.916,-0.405,-0.061,0.000,0.244
8,-0.089,-0.916,-0.404,-0.061,-0.061,0.244
8,-0.089,-0.916,-0.405,-0.061,-0.061,0.244
8,-0.090,-0.916,-0.405,-0.061,-0.061,0.305
8,-0.090,-0.916,-0.404,0.000,-0.061,0.305
8,-0.090,-0.916,-0.404,0.000,-0.061,0.244
8,-0.089,-0.916,-0.405,-0.061,0.000,0.244
8,-0.090,-0.916,-0.406,0.000,0.000,0.244
8,-0.090,-0.916,-0.405,-0.061,0.000,0.305
8,-0.088,-0.915,-0.404,-0.122,0.000,0.305
8,-0.088,-0.915,-0.405,-0.122,0.000,0.305
8,-0.089,-0.916,-0.406,-0.061,-0.061,0.305
8,-0.089,-0.916,-0.405,-0.061,0.000,0.244
8,-0.088,-0.916,-0.404,-0.061,0.000,0.183
8,-0.088,-0.915,-0.404,-0.122,0.000,0.244
8,-0.089,-0.916,-0.404,-0.122,-0.122,0.305
8,-0.089,-0.916,-0.404,-0.122,-0.122,0.305
8,-0.089,-0.916,-0.405,-0.122,-0.061,0.305
8,-0.088,-0.915,-0.406,-0.061,-0.061,0.244
8,-0.088,-0.916,-0.405,0.000,0.000,0.244
8,-0.089,-0.916,-0.405,0.000,0.000,0.244
8,-0.089,-0.917,-0.405,0.000,0.000,0.183
8,-0.088,-0.916,-0.405,-0.061,-0.061,0.305
8,-0.088,-0.916,-0.405,-0.061,-0.061,0.305
8,-0.088,-0.916,-0.404,-0.061,-0.061,0.244
8,-0.089,-0.916,-0.405,-0.122,-0.061,0.244
8,-0.089,-0.916,-0.405,-0.061,0.000,0.244
8,-0.087,-0.917,-0.403,-0.061,-0.061,0.183
8,-0.088,-0.917,-0.404,-0.122,-0.061,0.183
8,-0.088,-0.916,-0.405,-0.122,0.000,0.244
8,-0.088,-0.915,-0.404,-0.122,-0.061,0.366
8,-0.088,-0.915,-0.404,-0.122,-0.061,0.244
8,-0.088,-0.915,-0.404,-0.061,-0.061,0.183
8,-0.088,-0.916,-0.403,0.000,0.000,0.183
8,-0.088,-0.917,-0.404,0.000,0.000,0.183
8,-0.087,-0.917,-0.404,0.000,-0.061,0.244
8,-0.088,-0.916,-0.404,-0.061,0.000,0.244
8,-0.089,-0.917,-0.403,-0.122,0.000,0.244
8,-0.088,-0.917,-0.404,0.000,0.061,0.244
8,-0.087,-0.916,-0.404,0.000,0.000,0.244
8,-0.088,-0.916,-0.403,0.061,-0.061,0.305
8,-0.088,-0.917,-0.405,0.061,0.000,0.244
8,-0.088,-0.916,-0.405,-0.061,0.061,0.122
8,-0.087,-0.916,-0.404,-0.061,0.000,0.122
8,-0.088,-0.916,-0.404,-0.061,0.000,0.183
8,-0.088,-0.916,-0.403,0.000,0.061,0.183
9,0.989,-0.013,-0.124,-0.305,-5.554,-0.427
9,0.992,-0.008,-0.124,0.000,-4.456,0.549
9,0.993,-0.004,-0.132,1.526,-2.625,0.549
9,0.991,-0.009,-0.141,2.747,-1.160,0.061
9,0.998,-0.019,-0.138,-1.831,-4.578,-0.427
9,1.020,-0.038,-0.110,-6.226,-7.629,-0.793
9,1.029,-0.050,-0.087,-18.555,-15.686,-1.892
9,1.022,-0.059,-0.072,-28.381,-21.118,-1.892
9,0.975,-0.027,-0.069,-52.551,-35.034,1.221
9,0.969,-0.010,-0.065,-81.787,-47.241,8.179
9,1.002,-0.016,-0.039,-97.961,-52.795,10.925
9,1.016,-0.027,-0.014,-122.742,-63.477,11.230
9,0.989,0.047,0.107,-133.423,-66.589,8.545
9,0.982,-0.073,0.172,-135.010,-62.805,-3.967
9,1.022,-0.179,0.209,-142.700,-66.406,10.559
9,1.034,-0.105,0.356,-149.841,-70.068,27.527
9,0.994,0.076,0.493,-132.690,-59.204,43.335
9,0.988,0.118,0.509,-75.500,-18.127,26.062
9,0.996,0.103,0.382,-51.575,8.911,12.390
9,0.990,0.069,0.266,-43.335,45.593,-6.531
9,0.977,0.008,0.083,-52.551,47.913,-8.789
9,0.982,-0.002,0.054,-74.341,33.020,-2.747
9,1.032,0.040,0.067,-77.393,24.719,-0.122
9,1.062,0.070,0.086,-65.186,17.761,-5.859
9,1.056,0.051,0.067,-55.786,24.780,-18.738
9,1.011,-0.023,-0.019,-51.392,29.236,-23.132
9,0.979,-0.058,-0.065,-43.396,29.846,-23.926
9,0.946,-0.082,-0.108,-42.114,24.536,-19.653
9,0.956,-0.057,-0.089,-52.612,6.348,-3.662
9,1.018,0.028,0.009,-64.270,-1.160,2.930
9,1.058,0.052,0.107,-81.909,-4.333,3.418
9,1.061,0.018,0.098,-50.171,14.893,-14.648
9,1.026,-0.083,-0.113,-21.423,29.907,-24.536
9,0.998,-0.112,-0.249,9.460,40.283,-30.579
9,0.937,-0.108,-0.339,5.371,28.076,-25.452
9,0.907,-0.072,-0.267,-25.818,-13.916,-6.042
9,0.886,0.056,0.013,-44.983,-31.555,3.357
9,0.944,0.186,0.215,-80.811,-42.664,11.047
9,0.990,0.211,0.245,-109.741,-22.888,-8.179
9,1.013,0.110,0.219,-112.122,-8.118,-25.391
9,0.978,0.026,0.198,-107.544,16.235,-50.537
9,0.856,-0.095,0.190,-109.070,24.048,-55.176
9,0.668,-0.122,0.199,-130.249,35.889,-50.476
9,0.583,-0.066,0.203,-317.932,35.828,-17.578
9,0.379,0.220,0.276,-400.391,24.658,0.061
9,0.315,0.368,0.338,-465.576,-13.733,12.085
9,0.376,0.545,0.494,-428.650,-34.546,3.052
9,0.274,0.587,0.567,-179.443,-53.162,-45.837
9,-0.003,0.564,0.691,-66.406,-48.767,-78.735
9,-0.182,0.286,0.430,31.128,43.823,-152.527
9,-0.253,0.131,0.119,-64.026,173.645,-195.190
9,-0.254,0.073,-0.055,-213.135,167.480,-187.927
9,-0.220,0.077,-0.036,-371.643,123.230,-182.373
9,-0.257,0.048,-0.024,-331.787,112.305,-187.256
9,-0.280,0.033,-0.042,-226.562,101.013,-188.782
9,-0.271,0.026,-0.063,-221.497,91.797,-185.364
9,-0.257,0.014,-0.073,-226.501,69.458,-179.565
9,-0.253,0.011,-0.078,-201.660,44.434,-170.593
9,-0.250,0.012,-0.078,-190.918,31.494,-165.161
9,-0.248,0.013,-0.074,-174.316,7.446,-155.762
9,-0.242,0.011,-0.062,-155.151,-13.916,-147.400
9,-0.242,0.010,-0.059,-144.653,-24.597,-143.005
9,-0.246,0.013,-0.054,-119.751,-46.875,-134.521
9,-0.257,0.019,-0.034,-103.699,-57.617,-131.531
9,-0.267,0.022,-0.028,-67.261,-77.576,-129.333
9,-0.282,0.029,-0.020,-46.143,-87.158,-130.249
9,0.145,0.113,-0.035,4.944,-101.685,-145.508
9,-0.048,0.066,-0.029,-14.893,-110.291,-192.383
9,-0.064,0.082,0.146,-53.223,-120.117,-200.256
9,-0.228,0.072,0.236,11.963,-40.405,-242.371
9,-0.676,0.084,-0.184,160.400,42.725,-266.235
9,-0.433,0.020,-0.574,-94.238,26.672,-291.687
9,0.534,-0.214,-1.115,20.142,-135.315,-296.143
9,-1.358,-3.434,2.920,-1077.942,-644.470,-324.219
9,-0.628,-3.829,4.000,520.142,-136.292,-125.061
9,0.233,-1.098,0.457,1335.998,86.792,-55.786
9,0.194,-0.230,-0.507,408.142,15.564,-84.045
9,-0.004,0.168,0.205,139.893,-33.813,-108.643
9,-0.054,0.060,0.216,251.831,-68.298,-128.052
9,-0.203,-0.608,-0.016,273.804,-76.111,-118.469
9,-0.299,-0.873,0.103,95.276,-87.402,6.165
9,-0.167,-0.853,0.190,15.503,-70.679,111.572
9,-0.055,-1.108,0.145,85.266,-55.115,99.243
9,-0.098,-1.192,0.049,143.616,-18.555,23.621
9,-0.145,-1.091,0.056,88.684,-10.071,-0.793
9,-0.130,-0.990,0.085,44.678,-2.808,-14.099
9,-0.127,-0.936,0.095,54.443,-3.784,-12.634
9,-0.146,-0.986,0.091,53.345,-17.517,-3.235
9,-0.142,-1.001,0.037,68.420,-19.104,-1.831
9,-0.139,-0.995,-0.020,53.772,-17.090,-3.540
9,-0.143,-0.990,-0.034,16.357,-8.423,-3.235
9,-0.145,-0.975,-0.000,-5.859,-6.287,0.305
9,-0.142,-0.994,0.027,-9.155,0.427,4.211
9,-0.140,-0.997,0.035,-4.333,0.854,2.747
9,-0.137,-0.991,0.031,1.282,0.244,1.282
9,-0.138,-0.991,0.021,8.362,-0.366,-0.305
9,-0.142,-0.987,0.010,5.615,-0.244,-0.061
9,-0.139,-0.990,0.021,-2.563,0.122,1.160
9,-0.138,-0.992,0.026,-1.465,0.183,0.977
9,-0.139,-0.992,0.024,1.099,0.061,0.427
9,-0.140,-0.991,0.020,2.869,-0.061,-0.061
9,-0.139,-0.989,0.018,1.953,-0.061,0.122
9,-0.139,-0.990,0.020,0.610,0.061,0.427
9,-0.140,-0.991,0.021,1.038,0.061,0.305
9,-0.139,-0.991,0.018,1.770,0.000,0.061
9,-0.139,-0.991,0.016,0.854,0.000,0.244
9,-0.139,-0.990,0.018,0.183,0.000,0.366
9,-0.139,-0.990,0.020,-0.061,0.061,0.366
9,-0.140,-0.992,0.019,0.244,0.061,0.305
9,-0.140,-0.992,0.019,0.366,0.000,0.305
9,-0.139,-0.991,0.018,0.061,0.000,0.366
9,-0.139,-0.992,0.020,0.061,0.000,0.427
9,-0.139,-0.992,0.019,1.526,-0.061,0.183
9,-0.138,-0.990,0.017,1.648,-0.061,0.061
9,-0.139,-0.990,0.016,0.916,-0.061,0.183
9,-0.138,-0.990,0.018,0.671,-0.061,0.244
9,-0.138,-0.990,0.018,0.916,-0.061,0.305
9,-0.140,-0.990,0.017,0.732,-0.061,0.244
9,-0.139,-0.991,0.016,1.343,0.000,0.183
9,-0.138,-0.990,0.016,1.343,0.000,0.122
9,-0.138,-0.990,0.017,0.610,0.000,0.244
9,-0.139,-0.990,0.017,-0.610,-0.061,0.488
9,-0.138,-0.990,0.017,-0.610,0.000,0.427
9,-0.138,-0.990,0.017,-0.183,-0.061,0.366
9,-0.139,-0.990,0.017,-0.183,0.000,0.366
9,-0.139,-0.991,0.016,-0.305,0.000,0.366
9,-0.138,-0.991,0.017,-0.366,0.000,0.427
9,-0.138,-0.991,0.018,-0.244,0.061,0.427
9,-0.138,-0.991,0.017,-0.183,0.061,0.488
9,-0.138,-0.991,0.017,-0.183,0.000,0.427
9,-0.137,-0.990,0.018,-0.244,-0.061,0.427
9,-0.137,-0.990,0.018,-0.244,0.000,0.366
9,-0.137,-0.991,0.017,-0.122,0.000,0.366
9,-0.137,-0.990,0.018,-0.122,0.061,0.427
9,-0.137,-0.990,0.017,-0.366,0.061,0.488
9,-0.136,-0.990,0.017,-0.488,0.061,0.488
9,-0.136,-0.989,0.017,-0.366,0.061,0.488
9,-0.138,-0.990,0.018,-0.244,0.061,0.488
9,-0.138,-0.991,0.019,-0.427,0.061,0.549
9,-0.136,-0.992,0.018,-0.488,0.061,0.549
9,-0.136,-0.991,0.019,-0.366,0.000,0.488
9,-0.136,-0.990,0.019,-0.244,0.061,0.488
9,-0.137,-0.990,0.018,-0.244,0.061,0.488
9,-0.137,-0.991,0.019,-0.488,0.061,0.488
9,-0.137,-0.991,0.019,-0.427,0.061,0.366
9,-0.136,-0.990,0.018,-0.305,0.061,0.366
9,-0.137,-0.989,0.019,-0.427,0.061,0.305
9,-0.137,-0.990,0.020,-0.610,0.061,0.244
9,-0.135,-0.990,0.020,-0.427,0.122,0.183
9,-0.135,-0.991,0.020,-0.244,0.122,0.244
9,-0.136,-0.991,0.020,-0.366,0.061,0.244
9,-0.136,-0.990,0.019,-0.366,0.000,0.305
9,-0.136,-0.991,0.018,-0.244,0.061,0.366
9,-0.135,-0.990,0.020,-0.427,0.061,0.305
9,-0.136,-0.991,0.020,-0.183,0.000,0.305
9,-0.136,-0.990,0.020,0.061,0.061,0.244
9,-0.135,-0.990,0.020,-0.061,0.000,0.244
9,-0.136,-0.991,0.022,-0.305,0.000,0.305
9,-0.136,-0.991,0.020,-0.305,0.000,0.305
9,-0.135,-0.990,0.019,0.000,0.000,0.244
9,-0.136,-0.990,0.020,0.061,0.000,0.183
9,-0.136,-0.991,0.021,-0.122,0.000,0.183
9,-0.136,-0.992,0.021,-0.183,0.000,0.244
9,-0.134,-0.989,0.020,-0.122,0.061,0.244
9,-0.134,-0.990,0.020,-0.183,0.061,0.305
9,-0.135,-0.991,0.021,-0.244,0.000,0.305
9,-0.136,-0.990,0.021,-0.122,0.000,0.305
9,-0.136,-0.991,0.021,-0.244,0.000,0.366
9,-0.134,-0.992,0.021,-0.305,0.000,0.305
9,-0.134,-0.992,0.021,-0.122,0.000,0.244
9,-0.136,-0.991,0.021,-0.122,0.061,0.244
9,-0.135,-0.991,0.021,-0.305,0.122,0.305
9,-0.135,-0.992,0.021,-0.183,0.000,0.305
9,-0.137,-0.991,0.022,-0.122,0.000,0.305
9,-0.136,-0.990,0.022,-0.061,0.000,0.366
9,-0.135,-0.991,0.021,-0.183,0.000,0.427
9,-0.135,-0.992,0.021,-0.244,0.061,0.366
9,-0.135,-0.991,0.022,-0.183,0.000,0.305
9,-0.135,-0.991,0.022,-0.061,0.000,0.244
9,-0.135,-0.992,0.022,-0.244,0.061,0.366
9,-0.136,-0.992,0.023,-0.183,0.000,0.366
9,-0.136,-0.990,0.023,-0.183,0.000,0.305
9,-0.135,-0.990,0.022,-0.183,0.061,0.305
9,-0.134,-0.990,0.021,-0.305,0.000,0.366
9,-0.134,-0.991,0.022,-0.244,0.000,0.305
9,-0.136,-0.992,0.022,-0.244,0.061,0.305
9,-0.135,-0.992,0.022,-0.305,0.061,0.305
9,-0.134,-0.989,0.023,-0.244,0.061,0.305
9,-0.134,-0.989,0.023,0.000,0.061,0.244
9,-0.135,-0.991,0.022,-0.244,0.000,0.244
9,-0.135,-0.990,0.024,-0.549,0.000,0.244
9,-0.134,-0.990,0.025,-0.122,0.061,0.244
9,-0.136,-0.990,0.022,-0.122,0.000,0.244
9,-0.136,-0.990,0.022,-0.244,0.000,0.122
9,-0.135,-0.991,0.022,-0.305,0.061,0.122
9,-0.134,-0.990,0.023,-0.305,0.061,0.183
9,-0.133,-0.990,0.023,-0.122,0.061,0.244
9,-0.135,-0.992,0.022,-0.122,0.061,0.244
9,-0.135,-0.991,0.023,-0.305,0.000,0.244
9,-0.134,-0.991,0.023,-0.244,0.000,0.244
10,0.930,0.204,-0.249,-2.197,6.348,3.845
10,0.935,0.214,-0.233,-6.042,5.188,4.639
10,0.947,0.229,-0.228,-10.254,3.601,4.272
10,0.953,0.229,-0.247,-7.446,2.869,3.235
10,0.959,0.236,-0.247,-4.211,1.404,1.404
10,0.961,0.242,-0.233,-2.014,0.061,-0.671
10,0.946,0.237,-0.226,-1.404,-0.549,-1.587
10,0.934,0.222,-0.237,-10.193,-2.014,-1.831
10,0.933,0.200,-0.261,-20.874,-3.113,-0.549
10,0.940,0.206,-0.247,-34.912,-6.531,0.610
10,0.958,0.218,-0.197,-30.640,-7.874,-2.502
10,0.959,0.235,-0.198,-26.611,-6.775,-4.883
10,0.950,0.234,-0.237,-20.508,-2.380,-9.583
10,0.935,0.221,-0.246,-18.188,-2.869,-11.047
10,0.927,0.198,-0.205,-14.526,-7.751,-10.498
10,0.922,0.163,-0.145,-13.733,-10.986,-6.714
10,0.913,0.153,-0.126,-24.231,-19.592,9.216
10,0.848,0.141,-0.115,-41.382,-22.766,19.836
10,0.785,0.079,-0.063,-107.300,-26.489,44.434
10,0.786,0.089,-0.051,-201.050,-30.701,84.534
10,0.833,0.246,-0.119,-244.446,-34.973,106.812
10,0.866,0.383,-0.170,-313.354,-44.250,130.981
10,0.896,0.547,-0.094,-349.731,-49.255,128.235
10,0.829,0.625,0.170,-384.949,-41.199,108.704
10,0.796,0.650,0.172,-294.556,9.827,68.298
10,0.813,0.656,-0.144,-216.187,35.522,39.490
10,0.850,0.576,-0.322,-92.224,53.101,-15.808
10,0.866,0.413,-0.533,-93.445,48.096,-29.724
10,0.831,0.399,-0.527,-211.426,16.174,-34.973
10,0.746,0.372,-0.171,-253.967,-0.732,-35.645
10,0.653,0.390,-0.012,-214.966,8.301,-41.687
10,0.583,0.377,-0.142,-166.443,34.729,-65.735
10,0.576,0.140,-0.219,-204.285,28.259,-72.449
10,0.590,0.076,-0.079,-170.105,36.194,-70.679
10,0.497,0.074,-0.277,-132.080,52.734,-71.655
10,0.425,0.039,-0.303,-196.411,49.500,-72.083
10,0.287,0.008,-0.103,-281.006,39.734,-66.040
10,0.214,0.091,0.027,-412.720,28.503,-48.401
10,0.161,0.189,0.019,-436.096,22.583,-44.067
10,0.051,0.204,-0.134,-471.924,16.174,-47.852
10,0.020,0.103,-0.239,-537.903,-11.230,-40.710
10,-0.174,-0.229,-0.428,-556.519,-32.776,-10.376
10,-0.341,-0.452,-0.451,-946.777,-106.812,142.883
10,-0.190,-0.271,-0.307,-1502.136,-178.833,373.962
10,-0.053,0.135,0.129,-1419.861,-163.696,407.227
10,-0.207,0.178,0.123,-728.821,-41.687,295.715
10,-0.194,0.163,0.074,-453.003,-2.747,202.148
10,-0.173,0.112,0.065,-438.354,-3.967,182.312
10,-0.192,0.093,0.065,-385.986,-0.122,170.471
10,-0.188,0.104,0.055,-365.540,3.540,178.894
10,-0.195,0.139,0.058,-355.896,6.592,178.711
10,-0.193,0.156,0.040,-377.930,7.874,175.110
10,-0.182,0.200,0.037,-331.909,4.333,158.936
10,-0.218,0.171,0.060,-214.294,-7.202,124.146
10,-0.266,0.151,0.113,-218.689,-12.695,125.183
10,-0.311,0.172,0.141,-258.606,-13.916,134.888
10,-0.344,0.182,0.156,-265.198,-10.376,133.179
10,-0.429,0.203,0.202,-260.071,-7.629,128.662
10,-0.481,0.210,0.234,-234.680,6.042,111.816
10,1.002,0.413,0.047,-169.006,30.334,101.868
10,3.170,0.219,-0.504,-84.106,239.807,200.745
10,2.518,-0.218,-1.139,411.377,318.787,649.658
10,-0.841,3.836,-2.315,-275.391,6.531,1048.035
10,-0.753,4.000,-1.618,88.318,-11.292,44.189
10,0.377,1.511,0.081,275.391,36.072,-10.681
10,0.416,0.888,-0.053,46.631,-3.967,89.050
10,0.243,0.766,-0.598,-25.024,-40.710,91.919
10,0.220,0.737,-0.600,-65.491,-94.849,44.128
10,0.252,0.601,-0.305,-76.355,-109.314,24.048
10,0.247,0.550,-0.179,-55.298,-110.840,16.357
10,0.220,0.527,-0.023,-24.292,-105.408,22.949
10,0.131,0.885,0.173,25.085,-86.060,49.927
10,0.169,1.317,0.284,83.435,-36.133,38.086
10,0.160,1.333,0.119,68.481,-14.587,10.864
10,0.073,0.931,0.025,18.799,8.423,-8.362
10,0.036,0.836,-0.008,7.141,17.212,1.099
10,0.026,0.935,-0.015,-14.099,32.410,6.836
10,0.028,0.954,-0.035,-11.475,40.833,3.296
10,0.057,0.953,-0.063,-32.471,51.819,5.920
10,0.069,0.977,-0.105,-20.691,65.552,7.690
10,0.154,1.054,-0.220,-18.494,67.993,4.395
10,0.193,1.014,-0.225,-43.396,65.857,7.690
10,0.150,1.047,-0.352,-69.275,61.096,11.597
10,0.125,1.022,-0.350,-91.858,39.307,8.484
10,0.074,0.861,-0.120,-102.905,32.654,13.000
10,0.277,0.978,-0.381,-158.264,36.804,28.381
10,0.396,0.984,-0.539,-196.899,17.517,21.179
10,0.384,0.834,-0.755,-175.293,11.292,12.024
10,0.183,0.709,-0.751,-8.301,17.456,-12.390
10,0.133,0.776,-0.545,-22.827,-2.502,1.831
10,0.092,0.911,-0.410,-25.330,-3.235,5.310
10,0.098,0.919,-0.416,-2.502,-0.671,2.930
10,0.112,0.901,-0.436,-3.418,-0.183,1.953
10,0.109,0.890,-0.434,-5.127,-0.305,0.671
10,0.106,0.892,-0.446,-0.854,-0.366,0.610
10,0.108,0.890,-0.437,4.272,-0.610,0.244
10,0.109,0.888,-0.433,7.324,-0.793,0.244
10,0.109,0.896,-0.427,7.324,-0.610,0.305
10,0.108,0.897,-0.432,4.883,-0.183,-0.183
10,0.109,0.892,-0.433,8.789,-0.488,-0.549
10,0.109,0.896,-0.417,7.507,-0.427,-0.244
10,0.109,0.896,-0.421,-1.587,0.000,0.183
10,0.109,0.895,-0.425,-2.686,0.061,0.305
10,0.108,0.893,-0.429,-0.732,-0.061,0.061
10,0.109,0.893,-0.422,2.563,-0.244,0.000
10,0.110,0.897,-0.426,-0.916,0.000,0.488
10,0.109,0.896,-0.428,-0.793,0.061,0.183
10,0.109,0.894,-0.425,0.610,-0.061,0.000
10,0.109,0.894,-0.423,-0.183,-0.061,0.183
10,0.109,0.893,-0.430,-1.648,0.000,0.427
10,0.108,0.894,-0.431,0.183,-0.061,0.244
10,0.109,0.896,-0.423,0.610,-0.122,0.183
10,0.110,0.894,-0.427,-1.648,0.000,0.366
10,0.110,0.895,-0.426,-0.671,0.061,0.305
10,0.108,0.895,-0.428,-1.282,0.000,0.305
10,0.109,0.893,-0.429,-1.221,-0.061,0.244
10,0.108,0.894,-0.429,-0.854,-0.061,0.183
10,0.108,0.894,-0.429,-1.221,-0.061,0.244
10,0.108,0.894,-0.430,-1.160,-0.061,0.244
10,0.109,0.893,-0.430,-1.160,-0.122,0.305
10,0.109,0.893,-0.429,-1.160,-0.061,0.183
10,0.109,0.894,-0.429,-1.343,0.000,0.183
10,0.109,0.894,-0.429,-1.465,-0.061,0.183
10,0.109,0.891,-0.430,-1.465,0.000,0.244
10,0.109,0.892,-0.429,-2.258,0.122,0.427
10,0.108,0.893,-0.431,-2.441,0.061,0.427
10,0.108,0.892,-0.432,-2.441,0.000,0.427
10,0.108,0.892,-0.432,-2.808,0.061,0.488
10,0.108,0.892,-0.434,-2.747,0.061,0.427
10,0.108,0.891,-0.433,-2.319,0.061,0.427
10,0.108,0.890,-0.434,-1.831,0.000,0.366
10,0.108,0.890,-0.434,-1.282,-0.122,0.488
10,0.108,0.892,-0.435,-1.343,-0.061,0.488
10,0.107,0.891,-0.436,-0.610,-0.061,0.366
10,0.108,0.888,-0.436,-0.183,-0.122,0.488
10,0.109,0.892,-0.436,0.061,-0.061,0.427
10,0.109,0.891,-0.435,0.366,0.061,0.244
10,0.108,0.890,-0.435,0.671,0.000,0.305
10,0.108,0.891,-0.434,0.977,-0.061,0.366
10,0.107,0.892,-0.435,0.916,0.000,0.305
10,0.106,0.890,-0.437,2.014,-0.061,0.183
10,0.107,0.891,-0.432,2.075,-0.244,0.244
10,0.108,0.892,-0.434,0.671,-0.122,0.305
10,0.107,0.891,-0.437,2.197,-0.122,0.122
10,0.106,0.892,-0.431,2.991,-0.244,0.061
10,0.106,0.892,-0.428,0.488,-0.122,0.000
10,0.069,0.888,-0.429,-2.319,-0.183,-0.366
10,-0.015,0.869,-0.442,11.230,-2.014,-2.686
10,0.002,0.871,-0.398,32.288,1.709,-3.784
10,0.221,0.921,-0.455,27.893,2.563,-3.723
10,0.250,0.935,-0.418,22.949,-2.258,-2.563
10,0.171,0.907,-0.333,-24.292,-3.723,7.202
10,0.128,0.906,-0.400,-104.431,1.221,17.761
10,0.049,0.846,-0.462,-118.774,-0.854,24.170
10,0.067,0.891,-0.513,-119.934,-5.493,30.029
10,0.066,0.862,-0.545,-90.820,-6.775,21.362
10,0.125,0.845,-0.519,-87.891,-9.277,22.156
10,0.158,0.807,-0.593,-67.383,-1.526,15.686
10,0.118,0.801,-0.619,-5.737,0.732,2.319
10,0.059,0.833,-0.554,18.921,-0.122,-0.916
10,0.058,0.837,-0.547,10.803,-0.732,-0.183
10,0.070,0.819,-0.548,-3.479,-0.366,-0.122
10,0.081,0.806,-0.567,-8.545,-0.366,0.671
10,0.092,0.832,-0.560,-3.906,-0.366,1.343
10,0.082,0.831,-0.562,-2.808,0.000,0.977
10,0.079,0.823,-0.558,-2.319,-0.122,0.305
10,0.077,0.821,-0.561,-2.319,-0.061,0.549
10,0.078,0.824,-0.564,-2.502,0.000,0.671
10,0.081,0.824,-0.563,-2.258,0.000,0.610
10,0.081,0.824,-0.564,-1.953,0.000,0.610
10,0.080,0.825,-0.564,-0.977,-0.061,0.427
10,0.077,0.821,-0.562,-0.916,-0.061,0.366
10,0.077,0.820,-0.563,-1.709,0.000,0.488
10,0.079,0.821,-0.565,-1.770,-0.061,0.549
10,0.080,0.822,-0.565,-1.343,-0.061,0.549
10,0.079,0.823,-0.565,-1.404,-0.061,0.488
10,0.078,0.820,-0.564,-0.916,-0.122,0.366
10,0.078,0.821,-0.565,-0.854,0.000,0.427
10,0.078,0.821,-0.567,-0.916,0.000,0.366
10,0.079,0.821,-0.567,-0.549,-0.061,0.305
10,0.078,0.822,-0.566,-0.305,-0.061,0.244
10,0.078,0.821,-0.566,-0.366,-0.061,0.366
10,0.079,0.821,-0.567,-0.305,-0.061,0.305
10,0.078,0.821,-0.567,-0.183,-0.061,0.244
10,0.078,0.822,-0.567,-0.305,0.000,0.244
10,0.078,0.821,-0.567,-0.305,0.000,0.244
10,0.078,0.821,-0.567,-0.244,-0.061,0.244
10,0.079,0.821,-0.565,-0.427,-0.061,0.183
10,0.078,0.821,-0.567,-0.488,-0.061,0.183
10,0.078,0.820,-0.568,-0.366,-0.061,0.244
10,0.079,0.820,-0.567,-0.427,-0.061,0.244
10,0.079,0.820,-0.568,-0.549,-0.061,0.183
10,0.078,0.820,-0.568,-0.549,-0.061,0.183
10,0.078,0.821,-0.567,-0.671,-0.061,0.183
10,0.078,0.821,-0.568,-0.610,-0.122,0.183
10,0.078,0.820,-0.568,-0.671,-0.061,0.183
10,0.078,0.819,-0.568,-0.610,0.000,0.366
10,0.078,0.820,-0.568,-0.610,-0.061,0.305
10,0.078,0.819,-0.568,-0.671,-0.061,0.244
10,0.078,0.819,-0.568,-0.610,-0.061,0.305
11,0.949,0.300,-0.224,-12.878,13.428,2.808
11,0.933,0.288,-0.236,-11.902,15.198,4.517
11,0.922,0.282,-0.229,-14.282,15.137,5.005
11,0.944,0.299,-0.198,-18.799,10.498,3.235
11,0.944,0.300,-0.216,-16.418,6.775,0.854
11,0.946,0.291,-0.273,-16.357,7.629,0.793
11,0.954,0.287,-0.277,-16.296,10.620,1.831
11,0.950,0.281,-0.229,-14.038,11.292,1.770
11,0.929,0.274,-0.206,-9.216,8.057,-0.549
11,0.898,0.255,-0.225,-9.949,4.456,-2.136
11,0.912,0.256,-0.239,-19.104,-2.625,-3.662
11,0.935,0.264,-0.249,-28.870,-3.723,-5.615
11,0.961,0.271,-0.243,-28.748,-2.808,-6.775
11,0.942,0.257,-0.245,-22.766,-3.174,-9.216
11,0.908,0.224,-0.239,-18.372,-4.333,-12.817
11,0.929,0.219,-0.262,-19.165,-4.028,-15.381
11,0.953,0.225,-0.262,-23.987,-4.639,-20.020
11,0.977,0.218,-0.243,-24.597,-5.737,-21.912
11,0.961,0.206,-0.240,-24.963,-5.188,-23.621
11,0.911,0.176,-0.280,-25.330,-3.723,-22.339
11,0.902,0.172,-0.240,-28.381,-5.554,-16.113
11,0.920,0.178,-0.215,-30.029,-10.803,-13.184
11,0.964,0.193,-0.233,-29.114,-13.306,-13.062
11,0.969,0.194,-0.235,-25.757,-19.287,-11.841
11,0.951,0.182,-0.225,-25.940,-20.386,-11.475
11,0.952,0.184,-0.222,-28.503,-19.531,-14.221
11,0.959,0.162,-0.230,-25.879,-20.752,-16.174
11,0.941,0.144,-0.261,-19.470,-23.743,-17.212
11,0.935,0.141,-0.259,-26.184,-22.766,-13.916
11,0.945,0.157,-0.178,-28.259,-23.987,-10.681
11,0.955,0.190,-0.113,-6.409,-33.691,-6.897
11,0.984,0.184,0.043,28.870,-45.105,-2.502
11,0.979,0.268,0.166,39.856,-50.232,-0.305
11,0.986,0.277,0.244,50.842,-50.476,0.916
11,1.000,0.459,0.411,56.030,-36.438,2.502
11,0.988,0.536,0.439,51.514,20.020,-14.832
11,0.931,0.407,0.337,37.842,49.744,-28.076
11,0.903,0.282,0.240,16.479,79.163,-29.114
11,0.903,0.255,0.166,1.587,80.200,-16.907
11,0.934,0.320,0.173,1.831,80.933,-1.099
11,0.955,0.301,0.177,54.260,88.379,-1.221
11,0.967,0.235,0.154,69.702,91.553,0.305
11,0.929,0.257,0.104,81.238,101.318,1.465
11,0.842,0.299,-0.108,79.285,108.765,-3.540
11,0.821,0.272,-0.204,82.703,111.389,-15.503
11,0.855,0.237,-0.207,81.970,103.821,-16.968
11,0.857,0.216,-0.112,78.003,86.914,-19.958
11,0.775,0.113,0.087,83.923,86.609,-21.667
11,0.675,0.022,0.116,92.896,102.173,-17.944
11,0.618,-0.002,0.082,76.599,113.159,-8.362
11,0.525,0.024,0.034,57.556,108.582,-5.798
11,0.470,0.042,0.111,3.601,75.012,-17.822
11,0.369,0.152,0.480,-16.785,56.458,-29.541
11,0.322,0.323,0.708,11.475,57.922,-76.538
11,-0.098,0.266,0.857,179.932,105.469,-135.315
11,-0.569,0.187,0.033,738.403,319.153,-237.854
11,-0.508,0.184,-0.275,591.003,373.535,-220.520
11,-0.331,0.004,-0.367,224.426,296.936,-186.035
11,-0.294,-0.046,-0.289,-259.155,130.493,-110.657
11,-0.255,0.001,-0.157,-225.342,98.816,-90.759
11,-0.251,0.016,-0.160,-12.817,100.891,-89.783
11,-0.234,-0.010,-0.206,5.493,95.398,-88.501
11,-0.192,-0.027,-0.180,-79.407,60.181,-67.810
11,-0.180,-0.028,-0.162,-106.934,38.696,-46.753
11,-0.167,-0.036,-0.155,-99.487,34.302,-37.964
11,-0.162,-0.040,-0.155,-98.206,24.292,-16.602
11,-0.163,-0.038,-0.134,-102.356,18.738,-4.028
11,-0.195,-0.024,-0.105,-101.501,12.695,21.484
11,-0.228,-0.013,-0.092,-100.952,12.573,46.997
11,-0.303,0.024,-0.075,-102.478,13.489,58.716
11,-0.348,0.048,-0.071,-89.050,15.930,74.097
11,-0.445,0.097,-0.072,-65.674,16.724,77.148
11,-0.491,0.125,-0.074,11.230,12.878,75.684
11,0.084,0.252,-0.122,75.806,9.888,71.167
11,3.299,0.508,-1.202,-483.154,-34.241,75.623
11,3.392,0.659,-0.456,-902.954,-612.183,196.472
11,1.325,1.622,0.943,-1122.253,-393.249,-100.159
11,-1.385,-1.657,-1.734,-226.257,901.794,-1024.231
11,-0.235,-3.685,-2.457,-252.319,538.269,-404.846
11,-0.044,-0.618,-0.986,599.182,163.940,310.425
11,-0.352,-0.212,-0.436,486.999,175.659,240.967
11,-0.028,-0.196,-0.711,217.834,134.277,174.622
11,0.181,-0.083,-0.740,-81.482,44.800,38.025
11,1.247,-0.653,-0.581,-97.229,19.653,-25.818
11,0.577,-0.509,-0.866,69.153,-10.803,-73.975
11,-0.230,-0.438,-0.887,-21.118,-93.933,-87.036
11,0.021,-0.417,-0.741,-14.282,-66.345,-79.041
11,-0.203,-0.509,-1.088,65.491,-42.358,-74.646
11,0.532,-0.578,-1.120,-378.052,-121.765,-34.668
11,0.724,-0.442,-0.693,-222.168,-44.800,-28.442
11,0.225,-0.486,-0.733,28.931,7.263,-37.598
11,0.152,-0.612,-0.782,16.235,0.427,-47.302
11,0.001,-0.641,-0.881,-46.387,-10.559,-45.105
11,-0.169,-0.590,-0.839,-168.823,-55.786,-42.358
11,-0.037,-0.553,-0.770,-147.888,-52.856,-45.227
11,0.095,-0.654,-0.742,-70.190,-32.043,-44.922
11,0.271,-0.708,-0.686,-78.674,-35.645,-36.926
11,0.234,-0.680,-0.635,-18.982,-20.386,-41.199
11,0.260,-0.688,-0.744,27.771,-6.104,-45.349
11,0.377,-0.708,-0.709,-0.977,-14.832,-41.870
11,0.292,-0.686,-0.690,-18.738,-16.907,-21.606
11,0.198,-0.699,-0.745,-4.517,-1.648,0.305
11,0.146,-0.703,-0.720,-16.052,-0.916,4.272
11,0.157,-0.695,-0.710,-19.409,-3.601,1.770
11,0.167,-0.694,-0.730,-21.484,-5.798,0.610
11,0.162,-0.723,-0.688,-53.284,-12.329,3.540
11,0.164,-0.730,-0.669,-45.837,-9.521,5.188
11,0.174,-0.731,-0.674,-33.386,-7.751,3.723
11,0.175,-0.732,-0.666,-25.940,-6.958,2.441
11,0.176,-0.734,-0.653,-19.043,-5.066,1.831
11,0.175,-0.736,-0.667,-9.705,-2.075,1.221
11,0.175,-0.742,-0.661,-12.085,-2.625,1.404
11,0.179,-0.743,-0.656,-6.897,-2.075,0.977
11,0.180,-0.742,-0.657,-4.211,-0.916,0.732
11,0.179,-0.740,-0.657,-3.357,-0.854,0.549
11,0.178,-0.742,-0.657,-1.282,-0.732,0.183
11,0.179,-0.745,-0.655,0.610,-0.305,0.061
11,0.176,-0.744,-0.656,4.517,0.366,-0.122
11,0.174,-0.743,-0.655,8.911,0.732,-0.427
11,0.179,-0.738,-0.665,8.118,0.549,-0.305
11,0.180,-0.738,-0.664,1.587,-0.488,0.549
11,0.180,-0.738,-0.658,1.831,-0.427,0.427
11,0.176,-0.738,-0.661,8.850,0.732,-0.549
11,0.176,-0.737,-0.664,15.503,2.319,-1.404
11,0.177,-0.731,-0.672,15.808,2.502,-1.465
11,0.176,-0.728,-0.673,12.756,2.258,-0.977
11,0.178,-0.727,-0.675,13.611,2.502,-1.099
11,0.173,-0.728,-0.672,20.630,3.601,-2.563
11,0.170,-0.723,-0.675,30.823,5.005,-4.456
11,0.178,-0.708,-0.715,34.424,5.127,-5.005
11,0.172,-0.707,-0.711,6.897,1.038,-0.854
11,0.166,-0.709,-0.688,5.859,0.916,-0.610
11,0.168,-0.709,-0.693,17.700,2.869,-2.380
11,0.167,-0.705,-0.711,18.494,2.808,-2.808
11,0.166,-0.702,-0.714,6.897,0.977,-0.854
11,0.167,-0.699,-0.707,1.953,0.244,-0.061
11,0.167,-0.703,-0.708,0.671,0.061,0.000
11,0.167,-0.703,-0.708,0.244,0.000,0.000
11,0.166,-0.701,-0.706,-0.122,-0.061,0.122
11,0.166,-0.701,-0.707,-1.038,-0.183,0.244
11,0.167,-0.702,-0.706,-1.892,-0.366,0.366
11,0.167,-0.702,-0.706,-3.052,-0.488,0.366
11,0.166,-0.703,-0.705,-4.822,-0.732,0.488
11,0.166,-0.704,-0.705,-5.310,-0.916,0.549
11,0.167,-0.704,-0.705,-8.301,-1.648,0.671
11,0.168,-0.708,-0.700,-9.827,-2.075,0.732
11,0.169,-0.711,-0.697,-10.498,-2.563,0.671
11,0.169,-0.711,-0.696,-10.376,-2.625,0.610
11,0.170,-0.713,-0.691,-10.315,-2.625,0.549
11,0.171,-0.714,-0.688,-7.690,-1.892,0.488
11,0.171,-0.717,-0.688,-5.676,-1.404,0.427
11,0.171,-0.718,-0.689,-3.052,-0.916,0.305
11,0.171,-0.718,-0.689,-1.526,-0.610,0.305
11,0.172,-0.716,-0.689,-1.099,-0.488,0.305
11,0.172,-0.718,-0.687,-0.671,-0.305,0.183
11,0.173,-0.718,-0.687,0.061,-0.122,0.183
11,0.172,-0.717,-0.687,0.488,-0.061,0.183
11,0.172,-0.717,-0.688,0.977,0.000,0.122
11,0.172,-0.717,-0.689,1.221,0.061,0.061
11,0.171,-0.717,-0.689,1.526,0.122,0.061
11,0.171,-0.716,-0.690,1.770,0.183,0.000
11,0.171,-0.716,-0.688,2.686,0.244,0.000
11,0.171,-0.717,-0.689,3.662,0.427,-0.122
11,0.172,-0.715,-0.690,4.089,0.488,-0.122
11,0.171,-0.714,-0.691,5.249,0.732,-0.244
11,0.171,-0.712,-0.692,5.737,0.854,-0.305
11,0.170,-0.711,-0.693,6.287,1.099,-0.305
11,0.169,-0.711,-0.696,7.507,1.221,-0.427
11,0.171,-0.708,-0.704,7.385,1.038,-0.488
11,0.172,-0.708,-0.701,0.366,0.061,0.122
11,0.169,-0.708,-0.698,1.404,0.183,0.000
11,0.167,-0.708,-0.700,3.052,0.427,-0.122
11,0.169,-0.707,-0.700,1.953,0.244,0.000
11,0.170,-0.707,-0.700,0.000,-0.061,0.244
11,0.170,-0.706,-0.699,-0.244,-0.122,0.122
11,0.169,-0.707,-0.700,-0.061,-0.061,0.061
11,0.169,-0.707,-0.700,-0.793,-0.183,0.244
11,0.170,-0.707,-0.700,-0.854,-0.183,0.244
11,0.169,-0.708,-0.700,-1.221,-0.244,0.305
11,0.170,-0.708,-0.699,-1.892,-0.305,0.305
11,0.170,-0.708,-0.698,-2.258,-0.305,0.366
11,0.170,-0.709,-0.698,-2.258,-0.305,0.305
11,0.170,-0.710,-0.695,-2.563,-0.366,0.366
11,0.170,-0.710,-0.695,-1.953,-0.366,0.305
11,0.170,-0.710,-0.696,-1.953,-0.427,0.305
11,0.170,-0.710,-0.696,-2.502,-0.610,0.305
11,0.171,-0.711,-0.696,-2.930,-0.671,0.305
11,0.171,-0.712,-0.693,-2.380,-0.610,0.305
11,0.170,-0.712,-0.693,-0.366,-0.122,0.183
11,0.171,-0.711,-0.694,0.061,-0.122,0.122
11,0.171,-0.711,-0.695,0.549,-0.061,0.122
11,0.171,-0.711,-0.696,0.671,0.000,0.183
11,0.171,-0.711,-0.695,0.793,0.000,0.122
11,0.171,-0.712,-0.695,0.854,0.061,0.061
11,0.171,-0.712,-0.695,1.221,0.122,-0.061
11,0.171,-0.712,-0.695,1.465,0.122,0.122
11,0.170,-0.711,-0.696,1.587,0.122,0.061
11,0.170,-0.710,-0.697,1.770,0.183,0.000
11,0.171,-0.709,-0.697,1.709,0.244,0.000
11,0.170,-0.710,-0.696,1.709,0.183,0.000
12,0.922,0.241,-0.300,-2.808,-1.099,1.160
12,0.935,0.242,-0.328,-4.517,0.000,0.366
12,0.930,0.248,-0.321,-6.897,2.319,0.122
12,0.898,0.246,-0.305,-7.324,3.052,0.610
12,0.892,0.228,-0.310,-8.728,3.601,2.258
12,0.910,0.235,-0.300,-9.766,3.357,2.869
12,0.933,0.267,-0.275,-9.094,1.831,1.648
12,0.932,0.270,-0.299,-8.423,1.343,-0.549
12,0.921,0.267,-0.334,-9.277,1.343,-3.418
12,0.907,0.262,-0.326,-6.592,0.488,-2.625
12,0.896,0.248,-0.300,2.686,-1.892,1.404
12,0.898,0.242,-0.293,3.174,-1.282,3.723
12,0.910,0.245,-0.283,0.549,0.366,3.601
12,0.917,0.252,-0.268,-2.014,1.526,3.052
12,0.931,0.248,-0.282,-0.488,0.610,1.953
12,0.927,0.242,-0.301,3.906,-1.343,1.892
12,0.918,0.236,-0.304,9.705,-5.554,1.770
12,0.905,0.240,-0.305,8.423,-4.639,-0.488
12,0.906,0.241,-0.313,1.953,-0.061,-7.568
12,0.915,0.241,-0.312,-0.427,0.061,-9.277
12,0.917,0.243,-0.294,-1.770,-2.502,-8.179
12,0.916,0.241,-0.249,0.061,-3.967,-6.775
12,0.916,0.243,-0.237,8.606,-8.118,-4.456
12,0.942,0.261,-0.184,14.648,-10.620,-4.089
12,0.960,0.273,-0.138,32.043,-12.024,-6.775
12,0.931,0.242,-0.237,39.368,-8.545,-9.277
12,0.899,0.220,-0.412,38.086,0.122,-10.315
12,0.869,0.199,-0.501,24.536,-2.380,-6.287
12,0.880,0.209,-0.366,-12.573,-9.277,2.869
12,0.907,0.239,-0.156,-21.545,-10.498,4.150
12,0.905,0.250,-0.098,-10.315,-19.043,4.150
12,0.920,0.288,-0.032,7.812,-26.489,3.296
12,0.950,0.305,0.034,56.213,-36.316,0.122
12,0.985,0.444,0.132,67.688,-34.485,-2.930
12,0.962,0.530,0.109,74.768,-11.841,-32.104
12,0.923,0.467,-0.126,77.148,4.456,-55.725
12,0.894,0.295,-0.226,65.613,14.343,-71.777
12,0.859,0.144,-0.094,49.011,8.789,-60.181
12,0.851,0.159,-0.046,26.978,7.507,-43.152
12,0.841,0.154,-0.096,32.288,7.568,-42.603
12,0.858,0.152,-0.169,44.678,-2.014,-34.424
12,0.957,0.261,-0.204,38.879,-12.817,-27.222
12,1.008,0.333,-0.117,30.945,-27.466,-26.733
12,1.041,0.315,0.134,33.264,-20.935,-35.400
12,1.016,0.233,0.211,49.011,19.104,-49.011
12,0.913,0.112,0.130,50.049,41.016,-49.500
12,0.861,0.121,0.000,56.213,65.063,-47.974
12,0.854,0.232,-0.232,70.007,66.284,-54.626
12,0.900,0.218,-0.295,89.478,49.255,-70.618
12,0.982,0.054,-0.258,76.599,33.569,-64.514
12,0.970,0.039,-0.193,20.447,10.315,-25.513
12,0.935,0.052,-0.130,-0.183,8.911,-11.475
12,0.946,0.027,-0.166,-1.343,10.925,-6.470
12,0.957,0.016,-0.261,16.724,8.606,-7.568
12,0.939,-0.004,-0.282,23.499,2.686,-6.592
12,0.912,0.077,-0.180,32.532,-13.062,2.625
12,0.907,0.121,-0.108,33.081,-18.860,0.244
12,0.879,0.043,0.031,48.157,-20.203,-18.188
12,0.843,-0.040,0.092,52.979,-15.381,-22.583
12,0.813,-0.101,0.121,52.368,2.014,-10.986
12,0.758,-0.186,0.152,52.307,8.423,1.526
12,0.711,-0.229,0.185,51.331,16.174,34.363
12,0.625,-0.170,0.213,43.518,22.278,51.697
12,0.632,-0.073,0.202,6.226,37.781,68.848
12,0.719,0.089,0.202,-17.395,44.495,65.552
12,0.701,0.114,0.197,-49.561,60.364,42.725
12,0.535,0.055,0.130,-56.519,69.885,28.809
12,0.458,0.007,0.144,-55.969,78.003,1.404
12,0.375,-0.058,0.325,-53.223,75.562,-11.719
12,0.300,-0.018,0.525,-65.125,71.594,-34.790
12,-0.043,0.080,0.716,-106.567,85.083,-53.345
12,-0.194,0.140,0.575,-306.030,120.483,-91.370
12,-0.302,0.188,0.108,-226.807,145.020,-114.868
12,-0.336,0.148,-0.099,208.984,200.134,-165.344
12,-0.304,0.049,-0.222,203.613,196.960,-169.983
12,-0.272,0.009,-0.201,-140.137,130.554,-143.799
12,-0.227,-0.006,-0.135,-193.115,103.882,-130.310
12,-0.220,-0.001,-0.146,-52.612,94.666,-118.652
12,-0.205,-0.015,-0.180,-21.851,91.370,-113.586
12,-0.191,-0.022,-0.175,-72.754,70.251,-95.703
12,-0.176,-0.028,-0.159,-79.407,60.852,-86.487
12,-0.182,-0.030,-0.157,-51.331,48.340,-68.359
12,-0.208,-0.031,-0.145,-46.021,41.992,-57.129
12,-0.234,-0.022,-0.131,-44.373,30.579,-31.250
12,-0.302,0.018,-0.097,-40.039,27.466,-18.982
12,-0.345,0.044,-0.088,-28.687,24.353,-1.465
12,-0.452,0.097,-0.085,-15.015,22.400,3.296
12,-0.516,0.125,-0.086,48.035,14.465,6.714
12,1.161,0.149,-0.478,-28.015,6.836,21.973
12,3.144,0.485,-0.795,-1420.471,-248.230,301.514
12,3.089,2.847,0.804,-1189.758,-305.847,333.801
12,0.402,2.498,1.377,1039.001,518.250,-829.102
12,-2.840,-1.266,-3.216,1352.295,1053.162,-1130.676
12,-1.356,-1.780,-4.000,-79.651,455.261,-139.893
12,0.104,-0.935,-2.692,-248.901,74.036,108.521
12,-0.089,-0.524,-1.390,6.653,-2.563,68.970
12,0.094,-0.317,-0.272,26.611,28.442,46.692
12,0.087,-0.302,-0.308,-44.250,35.461,26.855
12,-0.059,-0.308,-0.550,-56.213,23.010,2.563
12,-0.059,-0.375,-0.649,-8.240,-7.446,-33.386
12,0.036,-0.347,-0.956,21.729,-9.155,-41.992
12,0.314,-0.335,-1.006,-34.363,-2.563,-38.452
12,0.224,-0.399,-0.911,-58.838,4.211,-33.752
12,-0.153,-0.403,-0.806,-27.771,10.559,-35.522
12,-0.033,-0.399,-0.757,-21.057,15.808,-41.077
12,0.249,-0.472,-1.095,11.841,48.096,-22.827
12,0.321,-0.327,-1.000,0.427,44.250,-9.644
12,0.310,-0.387,-0.941,12.024,44.434,-26.123
12,0.305,-0.305,-0.909,25.513,47.180,-33.203
12,0.238,-0.022,-0.536,-94.910,28.687,-56.152
12,0.272,-0.347,-0.681,-53.345,27.527,-59.937
12,0.569,-0.879,-1.242,31.067,10.742,-22.461
12,0.455,-0.737,-1.198,26.306,-21.179,21.362
12,-0.058,-0.441,-0.998,8.728,-11.047,5.371
12,-0.057,-0.393,-0.950,4.456,10.742,-12.634
12,0.047,-0.398,-0.865,5.249,9.338,-6.653
12,0.061,-0.415,-0.888,-18.066,-5.066,6.714
12,0.055,-0.461,-0.940,-35.095,-7.996,7.935
12,0.045,-0.461,-0.939,-37.659,-0.427,2.075
12,0.037,-0.443,-0.913,-40.894,1.953,2.075
12,0.039,-0.454,-0.904,-70.435,-1.648,9.399
12,0.048,-0.494,-0.894,-82.581,-3.235,12.024
12,0.053,-0.510,-0.885,-86.975,-1.709,11.536
12,0.054,-0.528,-0.849,-83.801,-0.854,10.193
12,0.053,-0.535,-0.834,-68.237,-1.282,9.277
12,0.060,-0.557,-0.827,-62.683,-2.991,9.583
12,0.064,-0.568,-0.834,-67.993,-6.897,9.277
12,0.057,-0.590,-0.828,-62.378,-4.578,8.118
12,0.058,-0.595,-0.816,-31.677,2.625,5.432
12,0.064,-0.599,-0.792,-22.400,2.258,4.578
12,0.064,-0.602,-0.791,-12.878,-2.197,2.747
12,0.059,-0.602,-0.797,-2.930,-2.563,1.404
12,0.057,-0.594,-0.795,16.296,-3.906,0.671
12,0.058,-0.586,-0.798,12.756,-7.507,1.587
12,0.049,-0.587,-0.789,35.278,-4.456,0.854
12,0.016,-0.562,-0.837,47.668,0.916,-5.310
12,0.057,-0.603,-0.857,34.546,4.333,-12.207
12,0.048,-0.528,-0.851,29.236,3.845,-8.484
12,0.092,-0.569,-0.846,9.888,2.075,-2.197
12,0.113,-0.585,-0.859,4.639,2.625,0.427
12,0.073,-0.567,-0.842,-4.822,0.549,1.160
12,0.050,-0.561,-0.832,-7.202,0.061,0.366
12,0.053,-0.564,-0.831,-0.427,0.793,0.183
12,0.062,-0.568,-0.829,6.104,1.343,0.183
12,0.063,-0.565,-0.832,15.747,2.075,-0.793
12,0.060,-0.554,-0.840,17.944,2.197,-1.221
12,0.058,-0.553,-0.845,19.104,2.258,-1.343
12,0.055,-0.552,-0.854,18.372,2.136,-1.282
12,0.057,-0.549,-0.857,13.855,1.282,-0.977
12,0.056,-0.544,-0.854,10.925,0.916,-0.671
12,0.058,-0.543,-0.853,7.812,0.610,-0.610
12,0.057,-0.541,-0.854,8.240,0.610,-0.549
12,0.055,-0.540,-0.856,6.897,0.366,-0.549
12,0.056,-0.537,-0.858,6.104,0.244,-0.549
12,0.055,-0.536,-0.858,4.272,0.122,-0.305
12,0.054,-0.536,-0.858,1.892,-0.122,-0.061
12,0.055,-0.535,-0.861,-0.305,-0.244,0.061
12,0.056,-0.535,-0.859,-3.296,-0.244,0.305
12,0.057,-0.538,-0.856,-3.479,-0.244,0.366
12,0.056,-0.539,-0.855,-1.587,-0.244,0.305
12,0.056,-0.539,-0.855,-0.488,-0.183,0.244
12,0.057,-0.538,-0.855,0.793,-0.244,0.122
12,0.052,-0.537,-0.855,0.977,-0.305,-0.061
12,0.052,-0.538,-0.858,-0.977,-0.366,-0.549
12,0.059,-0.537,-0.858,-3.357,-0.366,-0.610
12,0.061,-0.539,-0.854,-2.563,-0.244,-0.183
12,0.060,-0.539,-0.855,-1.770,-0.122,0.244
12,0.057,-0.540,-0.855,-1.770,-0.122,0.305
12,0.057,-0.540,-0.854,-0.671,0.061,0.122
12,0.050,-0.539,-0.851,0.000,0.122,-0.061
12,0.050,-0.539,-0.853,-0.854,0.183,-0.854
12,0.048,-0.530,-0.850,-0.671,0.244,-1.038
12,0.071,-0.549,-0.859,1.404,0.488,-2.136
12,0.067,-0.548,-0.855,3.174,0.427,-1.465
12,0.054,-0.537,-0.859,7.568,0.549,0.122
12,0.053,-0.536,-0.861,2.075,0.122,0.122
12,0.055,-0.537,-0.853,0.671,0.000,0.061
12,0.055,-0.537,-0.853,3.296,0.244,0.000
12,0.053,-0.536,-0.858,3.357,0.244,0.000
12,0.054,-0.535,-0.858,2.197,0.183,0.000
12,0.056,-0.534,-0.857,2.747,0.244,-0.061
12,0.056,-0.534,-0.858,4.150,0.305,0.000
12,0.055,-0.534,-0.860,3.906,0.244,0.000
12,0.055,-0.533,-0.860,2.380,0.122,0.061
12,0.053,-0.532,-0.860,1.587,0.061,0.061
12,0.054,-0.532,-0.860,0.183,-0.061,0.061
12,0.054,-0.532,-0.860,-0.305,-0.122,0.183
12,0.054,-0.532,-0.859,-0.916,-0.122,0.305
12,0.054,-0.532,-0.859,-0.793,-0.122,0.183
12,0.054,-0.532,-0.858,-0.610,-0.122,0.122
12,0.054,-0.532,-0.859,-0.610,-0.061,0.183
12,0.054,-0.532,-0.859,-0.854,-0.122,0.122
12,0.056,-0.533,-0.859,-1.404,-0.244,0.000
12,0.056,-0.533,-0.858,-1.160,-0.183,0.122
12,0.054,-0.532,-0.859,-0.732,-0.061,0.183
12,0.052,-0.533,-0.859,-1.221,-0.122,0.122
12,0.057,-0.534,-0.856,-1.099,-0.122,0.122
12,0.057,-0.534,-0.857,1.282,0.000,0.122
12,0.055,-0.534,-0.860,1.282,0.061,0.122
12,0.055,-0.533,-0.858,0.916,0.061,0.122
13,0.227,-0.345,-0.792,4.822,-11.780,5.066
13,0.236,-0.334,-0.788,-1.526,-4.089,-4.883
13,0.244,-0.397,-0.839,-2.808,-0.671,-11.353
13,0.238,-0.451,-0.858,-1.526,1.099,-19.836
13,0.225,-0.564,-0.878,0.244,0.916,-20.203
13,0.228,-0.604,-0.880,3.723,1.160,-12.939
13,0.264,-0.584,-0.934,3.052,1.099,-6.653
13,0.286,-0.537,-0.962,3.662,-3.540,0.061
13,0.290,-0.518,-0.953,4.761,-7.446,-0.427
13,0.282,-0.533,-0.923,-2.136,-13.245,1.770
13,0.272,-0.542,-0.880,-6.653,-14.465,4.395
13,0.260,-0.527,-0.815,-4.456,-16.357,6.287
13,0.252,-0.520,-0.775,1.160,-16.296,5.188
13,0.229,-0.501,-0.705,2.502,-14.893,3.967
13,0.223,-0.509,-0.699,5.310,-9.399,0.061
13,0.218,-0.482,-0.705,6.348,-7.080,-0.854
13,0.211,-0.444,-0.689,4.395,-3.174,-1.953
13,0.189,-0.380,-0.658,0.732,-0.183,-0.977
13,0.191,-0.331,-0.661,-7.812,6.287,5.432
13,0.221,-0.248,-0.730,-8.118,7.874,4.883
13,0.234,-0.268,-0.775,2.686,7.629,-7.507
13,0.193,-0.327,-0.894,2.502,5.981,-12.634
13,0.211,-0.443,-0.767,-8.484,-4.333,-22.095
13,0.213,-0.454,-0.701,-4.211,-4.272,-26.245
13,0.181,-0.418,-0.698,3.601,6.470,-35.645
13,0.170,-0.464,-0.685,5.554,10.315,-44.556
13,0.145,-0.524,-0.655,5.493,12.512,-43.152
13,0.145,-0.531,-0.679,8.118,20.081,-38.147
13,0.158,-0.527,-0.757,12.817,22.461,-38.452
13,0.156,-0.551,-0.806,23.315,21.667,-40.710
13,0.178,-0.526,-0.906,26.001,17.700,-38.757
13,0.199,-0.455,-0.923,27.222,6.958,-39.185
13,0.200,-0.432,-0.896,27.954,3.601,-44.678
13,0.187,-0.497,-0.879,25.513,-0.488,-46.143
13,0.201,-0.568,-0.879,23.315,-2.380,-37.842
13,0.229,-0.542,-0.948,27.527,-4.944,-20.264
13,0.317,-0.460,-1.097,34.546,-7.935,-18.127
13,0.401,-0.449,-1.147,46.021,-14.404,-25.024
13,0.435,-0.475,-1.148,43.091,-13.489,-37.903
13,0.504,-0.579,-1.181,36.560,-11.108,-42.969
13,0.549,-0.678,-1.275,19.226,-11.841,-37.109
13,0.558,-0.707,-1.280,19.836,-24.109,-16.785
13,0.591,-0.714,-1.247,28.015,-30.640,-5.432
13,0.565,-0.650,-1.175,48.645,-42.603,7.935
13,0.565,-0.627,-1.099,50.842,-44.861,12.024
13,0.578,-0.527,-0.995,43.640,-39.001,13.184
13,0.627,-0.468,-0.997,24.902,-23.499,15.015
13,0.679,-0.307,-0.928,7.629,-16.479,20.569
13,0.677,-0.155,-0.808,11.719,-12.451,9.583
13,0.641,-0.277,-0.788,33.875,-30.090,-4.517
13,0.500,-0.323,-0.404,39.246,-49.133,-0.488
13,0.330,-0.309,-0.153,71.533,-52.917,-4.700
13,0.295,-0.346,-0.342,51.880,-9.460,-39.978
13,0.283,-0.690,-0.687,38.940,-4.272,-51.819
13,0.268,-0.816,-0.857,-11.292,-59.753,5.310
13,-0.075,-0.464,-0.734,-110.657,-118.958,79.346
13,-0.376,0.318,0.126,-320.496,-214.783,216.980
13,-0.408,0.464,0.307,-161.499,-160.034,133.057
13,-0.363,0.385,0.193,-29.419,-111.328,46.631
13,-0.338,0.344,0.132,79.773,-74.463,-76.843
13,-0.312,0.282,0.097,94.055,-71.289,-119.629
13,-0.290,0.243,0.072,125.916,-60.669,-189.575
13,-0.250,0.131,0.014,131.165,-56.763,-213.806
13,-0.199,0.020,-0.028,93.079,-56.335,-225.220
13,-0.170,-0.009,-0.041,23.437,-61.707,-196.228
13,-0.137,-0.044,-0.041,-3.052,-64.880,-177.917
13,-0.132,-0.056,-0.031,-36.987,-68.237,-141.235
13,-0.120,-0.065,-0.011,-48.340,-67.017,-122.559
13,-0.051,-0.054,-0.009,-64.453,-56.152,-89.416
13,-0.045,-0.059,-0.026,-78.613,-35.156,-68.237
13,-0.081,-0.092,-0.053,-82.520,-32.288,-55.176
13,-0.066,-0.058,-0.030,-86.365,-37.598,-18.616
13,-0.060,-0.034,-0.029,-59.509,-30.701,-4.822
13,-0.048,-0.043,-0.060,-28.076,-27.039,-6.470
13,-0.052,-0.058,-0.073,16.785,-28.687,7.080
13,-0.096,-0.028,-0.062,23.010,-33.264,24.170
13,-0.051,0.036,-0.055,54.321,-36.621,49.866
13,-0.121,0.124,-0.156,88.623,-29.785,37.415
13,0.617,0.211,-0.143,115.295,-62.927,24.536
13,1.789,0.182,-0.063,-757.324,52.612,-51.331
13,1.472,0.452,-0.082,-1543.823,267.639,-277.527
13,-0.982,0.485,-0.908,-1016.357,175.415,-1183.777
13,-4.000,-1.099,0.766,-135.498,-384.766,-805.237
13,-2.920,-4.000,0.576,-397.522,-23.682,319.153
13,-0.620,-3.349,0.618,74.829,134.705,337.463
13,-0.091,-2.351,0.713,900.146,-36.499,-546.692
13,-0.231,-0.736,-0.147,977.234,-75.317,-669.922
13,-0.104,-0.542,-0.387,767.639,-168.579,-514.587
13,0.075,-0.621,-0.235,336.182,-209.961,-55.054
13,0.093,-0.153,-0.043,205.200,-193.176,93.323
13,0.082,0.112,-0.110,199.768,-139.465,104.187
13,0.060,0.198,-0.092,285.767,-115.967,-8.789
13,-0.105,-0.014,-0.012,336.792,-91.309,-76.172
13,-1.487,-1.035,-2.000,256.409,-91.064,-34.912
13,-1.156,-0.905,-1.882,85.144,-217.468,46.814
13,-0.138,-0.290,-0.992,113.647,-189.758,4.944
13,-0.127,-0.155,-0.864,167.603,-91.675,-57.983
13,-0.195,-0.323,-1.031,30.701,-8.484,-41.870
13,-0.117,-0.478,-1.080,-21.179,21.790,-19.409
13,-0.179,-0.551,-0.935,-45.898,19.043,22.278
13,-0.230,-0.512,-0.795,-40.710,7.446,24.292
13,-0.237,-0.388,-0.896,0.427,-4.700,1.160
13,-0.235,-0.384,-0.934,13.245,-9.521,-5.249
13,-0.224,-0.374,-0.934,7.446,-5.127,-3.723
13,-0.228,-0.382,-0.917,-8.240,2.197,3.174
13,-0.229,-0.405,-0.893,-7.202,-0.183,3.296
13,-0.228,-0.405,-0.900,-3.418,-1.404,1.404
13,-0.230,-0.397,-0.906,1.709,-2.319,-0.549
13,-0.226,-0.390,-0.905,1.038,-2.686,0.977
13,-0.220,-0.401,-0.909,-2.380,-2.258,2.686
13,-0.227,-0.395,-0.908,-3.296,-1.160,1.953
13,-0.225,-0.396,-0.897,-4.028,-2.380,2.930
13,-0.223,-0.402,-0.904,-4.883,-3.113,3.967
13,-0.227,-0.394,-0.905,-3.540,-2.502,3.174
13,-0.224,-0.379,-0.902,-8.789,-5.066,9.705
13,-0.219,-0.402,-0.903,-19.836,-7.202,18.250
13,-0.216,-0.412,-0.904,-20.508,-7.324,19.287
13,-0.204,-0.434,-0.893,-20.630,-7.385,18.738
13,-0.201,-0.429,-0.895,-13.611,-6.348,15.747
13,-0.193,-0.459,-0.892,-8.118,-5.005,12.024
13,-0.208,-0.407,-0.897,2.258,-4.028,4.761
13,-0.201,-0.420,-0.899,-5.981,-6.165,11.169
13,-0.190,-0.443,-0.895,-5.981,-6.348,11.719
13,-0.184,-0.460,-0.896,2.380,-3.540,5.615
13,-0.198,-0.422,-0.898,7.751,-1.587,1.343
13,-0.192,-0.410,-0.905,0.122,-3.235,7.812
13,-0.180,-0.454,-0.898,-12.146,-4.272,10.803
13,-0.182,-0.453,-0.891,-2.258,-2.686,3.784
13,-0.188,-0.431,-0.904,4.456,-1.282,-1.587
13,-0.188,-0.432,-0.900,0.366,-0.732,0.244
13,-0.186,-0.433,-0.895,-0.061,-0.977,0.549
13,-0.183,-0.438,-0.897,0.610,-1.709,0.793
13,-0.185,-0.438,-0.901,1.526,-1.160,0.305
13,-0.186,-0.433,-0.899,1.221,-0.732,0.244
13,-0.184,-0.434,-0.896,1.038,-0.732,0.488
13,-0.185,-0.434,-0.897,1.221,-1.099,0.671
13,-0.184,-0.431,-0.898,1.160,-1.465,0.854
13,-0.182,-0.432,-0.899,0.305,-2.197,1.648
13,-0.181,-0.437,-0.902,0.366,-1.343,1.038
13,-0.183,-0.433,-0.897,0.916,-0.061,-0.122
13,-0.182,-0.433,-0.897,0.977,-0.427,0.000
13,-0.183,-0.433,-0.901,0.488,-0.549,0.122
13,-0.182,-0.433,-0.901,0.610,-0.366,0.061
13,-0.182,-0.433,-0.897,0.916,-0.305,0.000
13,-0.182,-0.433,-0.898,0.183,-0.549,0.122
13,-0.183,-0.434,-0.900,0.183,-0.427,0.183
13,-0.183,-0.432,-0.898,0.244,-0.366,0.122
13,-0.182,-0.433,-0.899,0.122,-0.427,0.122
13,-0.181,-0.433,-0.900,0.122,-0.427,0.244
13,-0.182,-0.433,-0.899,-0.061,-0.488,0.305
13,-0.181,-0.433,-0.899,-0.122,-0.610,0.305
13,-0.181,-0.433,-0.899,-0.366,-0.671,0.366
13,-0.181,-0.434,-0.899,-0.549,-0.610,0.427
13,-0.181,-0.434,-0.898,-0.427,-0.671,0.366
13,-0.181,-0.434,-0.899,-0.427,-0.671,0.366
13,-0.181,-0.433,-0.900,-0.305,-0.610,0.305
13,-0.180,-0.435,-0.899,-0.305,-0.610,0.305
13,-0.181,-0.436,-0.899,-0.244,-0.610,0.305
13,-0.181,-0.435,-0.899,-0.244,-0.549,0.305
13,-0.180,-0.434,-0.898,-0.244,-0.549,0.244
13,-0.179,-0.433,-0.899,-0.305,-0.549,0.183
13,-0.179,-0.435,-0.899,-0.244,-0.549,0.183
13,-0.179,-0.435,-0.899,-0.122,-0.427,0.183
13,-0.179,-0.433,-0.899,-0.122,-0.427,0.183
13,-0.180,-0.434,-0.899,0.000,-0.488,0.183
13,-0.180,-0.434,-0.899,0.000,-0.366,0.122
13,-0.178,-0.435,-0.900,0.061,-0.366,0.122
13,-0.179,-0.434,-0.900,0.183,-0.244,0.183
13,-0.179,-0.434,-0.900,0.244,-0.244,0.183
13,-0.179,-0.434,-0.900,0.183,-0.244,0.122
13,-0.179,-0.435,-0.900,0.305,-0.244,0.122
13,-0.178,-0.434,-0.899,0.366,-0.183,0.061
13,-0.178,-0.433,-0.899,0.366,-0.244,0.061
13,-0.180,-0.434,-0.901,0.427,-0.244,0.061
13,-0.180,-0.434,-0.900,0.366,-0.244,0.061
13,-0.178,-0.434,-0.900,0.366,-0.244,0.122
13,-0.179,-0.433,-0.900,0.305,-0.305,0.122
13,-0.179,-0.433,-0.899,0.122,-0.305,0.122
13,-0.177,-0.433,-0.899,0.244,-0.183,0.122
13,-0.177,-0.432,-0.899,0.244,-0.244,0.183
13,-0.178,-0.432,-0.899,0.244,-0.244,0.183
13,-0.178,-0.432,-0.899,0.122,-0.244,0.122
13,-0.178,-0.433,-0.899,0.183,-0.244,0.122
13,-0.179,-0.433,-0.901,0.183,-0.305,0.183
13,-0.179,-0.433,-0.900,0.000,-0.305,0.244
13,-0.179,-0.433,-0.900,-0.061,-0.244,0.122
13,-0.177,-0.434,-0.899,-0.061,-0.244,0.183
13,-0.178,-0.434,-0.899,-0.061,-0.305,0.244
13,-0.177,-0.433,-0.900,-0.122,-0.305,0.244
13,-0.177,-0.432,-0.900,-0.183,-0.244,0.244
13,-0.178,-0.433,-0.900,-0.183,-0.305,0.183
13,-0.177,-0.433,-0.900,-0.183,-0.305,0.183
13,-0.177,-0.433,-0.900,-0.244,-0.305,0.305
13,-0.177,-0.435,-0.899,-0.244,-0.305,0.305
13,-0.176,-0.434,-0.899,-0.122,-0.305,0.183
13,-0.177,-0.433,-0.899,-0.122,-0.305,0.183
13,-0.177,-0.434,-0.899,-0.183,-0.305,0.244
13,-0.177,-0.434,-0.899,-0.183,-0.305,0.183
13,-0.176,-0.434,-0.900,-0.122,-0.366,0.122
13,-0.177,-0.434,-0.900,0.000,-0.305,0.305
14,0.023,-0.216,-0.906,8.240,-34.241,8.118
14,0.038,-0.200,-0.928,10.254,-29.358,9.094
14,0.063,-0.166,-1.012,12.390,-28.870,7.812
14,0.067,-0.155,-1.047,14.282,-33.569,3.174
14,0.067,-0.157,-1.030,14.954,-36.621,-0.122
14,0.071,-0.171,-1.005,19.287,-34.607,-7.141
14,0.077,-0.253,-0.993,21.057,-30.640,-9.094
14,0.087,-0.309,-1.010,16.174,-25.696,-2.747
14,0.086,-0.297,-1.047,5.005,-27.588,9.521
14,0.068,-0.247,-1.016,-0.610,-32.410,13.611
14,0.055,-0.221,-0.931,-12.390,-38.452,13.977
14,0.035,-0.199,-0.885,-18.372,-37.292,10.315
14,0.017,-0.245,-0.847,-28.931,-37.354,2.014
14,0.017,-0.283,-0.813,-34.424,-30.396,0.000
14,0.018,-0.288,-0.770,-35.400,-23.315,0.793
14,0.036,-0.282,-0.799,-31.738,-5.310,-2.563
14,0.060,-0.268,-0.975,-31.067,-0.366,-3.235
14,0.071,-0.253,-1.008,-32.654,-7.263,-3.601
14,0.091,-0.263,-0.951,-32.166,-11.963,-4.944
14,0.135,-0.315,-0.900,-27.954,-15.381,-3.601
14,0.146,-0.293,-0.871,-22.156,-14.282,5.005
14,0.176,-0.173,-0.849,-17.639,-9.766,5.188
14,0.205,-0.103,-0.889,-9.644,1.038,-5.737
14,0.252,-0.098,-0.981,-8.911,1.404,-15.198
14,0.260,-0.128,-0.961,-12.268,-4.333,-33.142
14,0.263,-0.251,-0.864,-12.451,-3.540,-41.504
14,0.288,-0.379,-0.893,-8.545,9.460,-48.096
14,0.306,-0.409,-0.964,-5.615,16.113,-46.387
14,0.305,-0.475,-1.082,-4.395,13.428,-37.781
14,0.277,-0.484,-1.097,-14.526,-5.859,-20.325
14,0.336,-0.426,-0.961,-15.564,-14.893,-12.024
14,0.357,-0.352,-0.865,8.301,-8.850,-10.986
14,0.329,-0.313,-0.894,14.893,-0.549,-19.165
14,0.319,-0.396,-0.863,8.545,2.625,-27.039
14,0.310,-0.481,-0.807,4.395,4.944,-22.522
14,0.318,-0.420,-0.921,5.859,11.108,-11.047
14,0.290,-0.393,-1.040,5.554,9.827,-7.080
14,0.384,-0.385,-1.015,-0.183,-9.277,-1.587
14,0.438,-0.325,-0.928,5.310,-20.508,6.470
14,0.484,-0.225,-0.887,14.832,-17.273,5.066
14,0.517,-0.185,-0.934,26.794,-8.362,-4.639
14,0.550,-0.157,-0.932,35.095,-4.395,-12.024
14,0.524,-0.189,-1.006,43.518,-1.648,-21.484
14,0.519,-0.282,-1.031,39.490,-8.301,-21.301
14,0.527,-0.330,-0.990,34.790,-18.433,-17.944
14,0.539,-0.387,-0.928,35.095,-19.653,-15.076
14,0.544,-0.357,-0.813,29.114,-22.217,-5.859
14,0.549,-0.310,-0.770,26.184,-21.484,-1.160
14,0.558,-0.241,-0.890,28.625,-12.329,1.160
14,0.560,-0.243,-0.951,29.114,-12.390,0.244
14,0.541,-0.248,-0.900,21.545,-24.963,2.258
14,0.523,-0.227,-0.800,8.423,-35.461,7.446
14,0.494,-0.194,-0.671,6.470,-35.645,9.277
14,0.481,-0.188,-0.681,8.423,-34.302,8.667
14,0.481,-0.224,-0.642,10.132,-35.217,8.118
14,0.500,-0.194,-0.638,16.724,-26.367,12.024
14,0.506,-0.049,-0.698,17.334,-20.264,12.024
14,0.491,0.088,-0.676,6.592,-15.015,0.183
14,0.475,0.021,-0.627,-1.587,-10.376,-26.367
14,0.449,-0.239,-0.508,-0.854,-7.019,-33.203
14,0.440,-0.333,-0.412,-0.610,-1.282,-27.100
14,0.437,-0.318,-0.336,0.916,3.845,-15.808
14,0.398,-0.025,-0.381,3.235,13.245,0.488
14,0.367,0.095,-0.421,0.366,23.010,-19.287
14,0.312,0.105,-0.422,-8.118,28.015,-38.208
14,0.300,-0.025,-0.385,-31.250,35.095,-68.054
14,0.241,-0.187,-0.155,-46.326,39.246,-76.355
14,0.171,-0.362,-0.139,-45.959,53.345,-77.148
14,0.019,-0.461,0.020,-48.279,54.382,-58.960
14,-0.090,-0.308,0.255,-76.233,63.599,-24.353
14,-0.152,-0.254,0.200,-116.699,83.252,1.953
14,-0.316,-0.233,0.001,-150.574,82.397,21.667
14,-0.338,-0.173,-0.016,-221.374,66.772,64.026
14,-0.176,0.023,-0.135,-259.949,60.059,77.820
14,-0.319,0.048,-0.287,-250.671,62.012,72.510
14,-0.701,-0.035,-0.384,-212.708,70.129,69.153
14,-1.043,-0.045,-0.398,-204.895,95.032,90.393
14,-1.344,-0.086,-0.469,-173.889,169.556,59.143
14,-1.496,-0.286,-0.847,-138.123,216.187,18.188
14,-1.013,-0.420,-1.117,-67.871,198.364,-59.631
14,0.169,-0.446,-1.010,-104.553,78.735,-30.334
14,-0.044,-0.303,-0.475,-98.572,-99.915,9.094
14,-0.042,-0.234,-0.401,-137.512,-145.630,83.801
14,-0.107,0.045,-0.290,-136.597,-159.790,121.704
14,-0.120,0.086,-0.280,-23.621,-183.044,95.337
14,-0.156,0.117,-0.244,17.639,-206.360,79.163
14,-0.185,0.195,-0.196,71.106,-260.681,65.002
14,-0.061,0.188,-0.167,-14.832,-306.091,49.133
14,1.072,0.276,-0.038,-230.774,-296.814,70.374
14,2.660,0.823,-0.008,-1374.756,-22.400,-204.468
14,-1.349,0.504,0.578,-1396.973,212.219,-819.519
14,-3.371,-0.562,0.388,-646.912,325.378,-1516.418
14,-3.205,-2.348,2.479,-818.787,385.010,-879.028
14,-0.958,-0.985,3.526,-841.797,567.383,353.332
14,-0.125,-0.365,2.139,138.306,-27.283,-34.912
14,0.104,-0.314,0.831,302.490,-26.917,-108.276
14,-0.088,-0.598,0.698,371.033,98.633,-29.602
14,-0.048,-0.673,0.213,360.229,90.088,10.254
14,-0.102,-0.609,-0.039,276.672,0.488,58.044
14,-0.143,-0.717,0.076,275.940,-85.937,48.157
14,-0.205,-1.015,1.061,258.545,-104.797,42.786
14,-0.134,-0.962,1.140,278.320,-58.594,62.317
14,-0.064,-0.899,0.316,265.259,-46.997,72.632
14,-0.126,-0.917,0.250,201.233,-66.406,80.566
14,-0.119,-0.900,0.459,226.562,-78.918,76.294
14,0.031,-1.016,0.356,270.630,-72.693,69.397
14,0.063,-1.064,0.216,294.617,-63.171,84.595
14,0.028,-0.902,0.153,312.195,-64.087,87.891
14,-0.008,-0.765,0.258,186.279,-48.035,41.321
14,-0.109,-0.770,0.259,100.586,-26.123,14.771
14,-0.027,-1.006,0.023,-61.523,0.122,2.502
14,0.011,-1.031,0.039,-74.097,-3.052,-0.305
14,0.009,-1.016,0.117,-68.787,-5.066,-3.662
14,-0.005,-0.981,0.144,-57.678,-3.906,-0.793
14,-0.005,-0.976,0.157,-44.250,-3.174,1.343
14,-0.001,-0.993,0.158,-11.108,-1.282,0.977
14,-0.007,-0.990,0.150,14.526,0.183,-0.977
14,-0.010,-0.989,0.129,22.705,0.610,-1.465
14,-0.012,-0.992,0.125,28.870,0.732,-1.099
14,-0.008,-0.989,0.107,26.733,0.549,-0.366
14,-0.018,-0.998,0.107,13.306,-0.305,-0.061
14,-0.019,-1.001,0.105,0.183,-0.549,0.732
14,-0.007,-0.994,0.101,-7.019,-0.610,0.977
14,-0.009,-0.996,0.111,-15.381,-1.038,0.916
14,-0.009,-0.990,0.125,-16.174,-1.160,1.038
14,-0.007,-0.980,0.128,-8.606,-0.854,0.488
14,-0.005,-0.991,0.129,-2.869,-0.916,0.366
14,-0.010,-0.993,0.128,-1.099,-0.732,0.366
14,-0.009,-0.988,0.127,4.395,-0.366,-0.244
14,-0.013,-0.993,0.119,4.639,-0.244,0.000
14,-0.010,-0.993,0.119,0.793,-0.183,0.183
14,-0.010,-0.993,0.126,0.549,-0.183,-0.122
14,-0.011,-0.992,0.121,1.648,-0.061,0.183
14,-0.009,-0.986,0.118,0.854,-0.061,0.183
14,-0.008,-0.993,0.122,0.549,-0.122,0.061
14,-0.008,-0.996,0.122,0.793,-0.122,-0.061
14,-0.011,-0.986,0.125,3.235,-0.061,-0.244
14,-0.014,-0.996,0.120,8.972,0.305,-0.549
14,-0.012,-0.997,0.117,10.254,0.549,-0.671
14,-0.006,-0.990,0.106,10.925,0.732,-0.549
14,-0.008,-0.994,0.101,2.136,0.183,-0.366
14,-0.009,-0.989,0.117,1.038,0.244,-0.671
14,-0.009,-0.988,0.114,7.141,0.244,-0.427
14,-0.010,-0.997,0.104,5.493,0.122,-0.061
14,-0.008,-0.990,0.104,2.258,0.000,-0.122
14,-0.010,-0.991,0.107,2.563,-0.244,-0.366
14,-0.014,-0.998,0.107,3.418,-0.183,-0.244
14,-0.012,-0.995,0.105,3.479,0.122,-0.061
14,-0.011,-0.993,0.102,2.991,0.122,-0.061
14,-0.012,-0.996,0.102,2.625,0.122,-0.122
14,-0.011,-0.995,0.100,1.221,0.000,-0.061
14,-0.011,-0.994,0.102,0.549,-0.122,0.000
14,-0.011,-0.994,0.103,-1.038,-0.244,0.183
14,-0.012,-0.995,0.103,-2.075,-0.244,0.244
14,-0.011,-0.994,0.104,-2.197,-0.183,0.244
14,-0.012,-0.994,0.103,-2.075,-0.183,0.244
14,-0.011,-0.996,0.106,-1.953,-0.122,0.183
14,-0.010,-0.994,0.106,-1.587,-0.061,0.183
14,-0.010,-0.993,0.105,-0.854,-0.122,0.122
14,-0.010,-0.993,0.106,-0.549,-0.061,0.122
14,-0.010,-0.993,0.107,-0.061,0.061,0.122
