event,aX,aY,aZ,gX,gY,gZ
1,1.025,0.114,-0.047,-40.649,-6.836,-15.320
1,1.047,0.081,-0.024,-42.053,-7.141,-16.296
1,1.052,0.073,-0.025,-45.044,-9.583,-19.043
1,1.071,0.073,-0.010,-47.180,-11.902,-20.752
1,1.098,0.072,-0.002,-50.903,-14.404,-23.987
1,1.107,0.076,-0.007,-51.270,-14.832,-27.100
1,1.137,0.069,-0.028,-50.659,-15.442,-28.992
1,1.157,0.056,-0.048,-50.415,-19.836,-33.752
1,1.194,0.048,-0.064,-50.476,-22.766,-36.133
1,1.213,0.064,-0.020,-47.729,-23.987,-38.208
1,1.192,0.062,-0.038,-37.964,-14.221,-37.354
1,1.093,0.032,-0.122,-29.236,-7.690,-37.415
1,1.039,0.005,-0.098,-14.709,1.404,-38.208
1,0.909,-0.067,-0.054,-14.954,2.319,-38.513
1,0.787,-0.111,-0.139,-27.283,-5.066,-36.621
1,0.753,-0.104,-0.161,-35.583,-12.329,-30.273
1,0.743,-0.086,-0.168,-35.950,-12.512,-26.367
1,0.770,-0.078,-0.160,-34.485,-10.376,-18.188
1,0.871,-0.080,-0.123,-33.386,-8.545,-14.282
1,0.928,-0.085,-0.113,-31.677,-2.808,-7.202
1,1.017,-0.093,-0.124,-30.945,0.061,-4.517
1,1.047,-0.094,-0.124,-28.870,5.493,-1.343
1,1.039,-0.102,-0.125,-29.114,9.033,-0.610
1,1.013,-0.129,-0.111,-31.372,8.179,-1.160
1,1.012,-0.132,-0.073,-40.527,1.831,-2.686
1,1.023,-0.119,0.002,-46.814,-1.648,-2.747
1,1.028,-0.104,0.012,-48.218,-2.136,-2.258
1,1.021,-0.098,-0.010,-47.546,-0.061,-0.183
1,0.980,-0.087,-0.048,-44.983,2.136,0.977
1,0.927,-0.074,-0.028,-38.330,6.348,3.418
1,0.900,-0.071,-0.032,-33.142,7.080,5.249
1,0.883,-0.084,-0.026,-30.212,6.348,5.493
1,0.891,-0.094,-0.014,-24.414,5.554,5.859
1,0.917,-0.088,-0.014,-22.278,5.676,6.470
1,0.942,-0.078,-0.029,-18.188,6.958,7.507
1,0.947,-0.086,-0.034,-12.146,9.216,7.324
1,0.940,-0.109,-0.034,-8.301,10.132,7.141
1,0.930,-0.119,-0.035,0.122,11.780,7.141
1,0.917,-0.137,-0.037,3.113,12.024,7.141
1,0.918,-0.139,-0.031,4.456,10.986,6.409
1,0.938,-0.146,-0.024,4.333,10.742,5.737
1,0.944,-0.156,-0.046,2.441,10.620,3.662
1,0.943,-0.151,-0.056,-0.610,7.996,2.136
1,0.945,-0.122,-0.068,-1.465,6.958,2.258
1,0.949,-0.104,-0.063,2.563,8.606,3.662
1,0.983,-0.085,-0.043,5.615,9.888,4.150
1,1.000,-0.091,-0.047,7.080,10.193,4.333
1,1.017,-0.093,-0.082,7.324,9.155,4.395
1,1.034,-0.081,-0.021,7.996,6.592,6.348
1,1.044,-0.083,-0.017,9.827,6.348,8.240
1,1.061,-0.112,-0.053,13.184,5.676,8.423
1,1.070,-0.123,-0.046,20.020,3.967,8.728
1,1.083,-0.121,-0.038,18.982,2.014,8.667
1,1.124,-0.110,-0.048,12.451,-4.761,7.935
1,1.151,-0.101,-0.040,8.423,-9.277,8.728
1,1.188,-0.084,-0.061,6.470,-9.521,9.521
1,1.192,-0.083,-0.080,2.441,-9.766,9.949
1,1.186,-0.087,-0.073,1.770,-10.376,9.705
1,1.181,-0.088,-0.067,1.465,-13.428,9.094
1,1.169,-0.075,-0.091,1.465,-15.869,8.667
1,1.158,-0.054,-0.106,3.967,-19.836,7.874
1,1.119,0.004,-0.137,6.897,-20.142,6.653
1,1.044,0.032,-0.157,5.188,-20.325,5.432
1,0.996,0.031,-0.144,1.770,-20.081,3.052
1,0.889,0.027,-0.127,3.052,-19.043,2.502
1,0.845,0.030,-0.117,6.470,-19.165,1.831
1,0.790,0.046,-0.138,6.470,-20.935,1.404
1,0.780,0.058,-0.179,1.221,-24.902,1.221
1,0.798,0.120,-0.184,-3.967,-25.269,2.502
1,0.856,0.172,-0.112,-0.977,-18.250,6.287
1,0.891,0.158,-0.093,10.742,-5.798,7.812
1,0.958,0.112,-0.112,12.939,-0.793,8.118
1,0.991,0.091,-0.128,20.264,2.380,8.850
1,1.044,0.056,-0.119,24.292,1.648,9.338
1,1.054,0.047,-0.084,25.879,0.793,9.888
1,1.056,0.035,-0.019,22.522,0.610,9.766
1,1.056,0.032,-0.007,15.808,-0.488,7.263
1,1.039,0.023,-0.030,13.611,-1.038,5.310
1,0.976,0.037,-0.057,6.897,-2.380,2.319
1,0.941,0.036,-0.060,-0.488,-4.456,-0.366
1,0.893,0.035,-0.028,-3.296,-5.859,-1.465
1,0.881,0.039,-0.011,-10.132,-6.775,-2.075
1,0.885,0.053,-0.021,-13.550,-5.859,-1.892
1,0.891,0.058,-0.044,-12.939,-0.854,-1.282
1,0.911,0.063,-0.012,-10.925,2.197,-0.244
1,0.933,0.061,-0.008,-15.686,7.324,1.709
1,0.949,0.058,-0.024,-20.386,9.338,0.366
1,0.972,0.067,-0.011,-18.982,10.315,0.122
1,0.969,0.069,0.002,-18.372,12.146,1.099
1,0.951,0.052,0.024,-19.409,12.817,1.282
1,0.940,0.033,0.016,-20.569,13.123,0.793
1,0.934,0.035,-0.003,-22.583,9.583,-0.549
1,0.925,0.057,-0.038,-24.963,7.080,-1.282
1,0.929,0.062,-0.042,-27.771,3.357,-3.784
1,0.942,0.054,-0.015,-28.625,2.441,-5.432
1,0.958,0.049,0.004,-32.532,1.587,-7.874
1,0.965,0.050,-0.005,-32.349,0.671,-9.277
1,0.997,0.060,-0.016,-28.809,-0.183,-10.071
1,1.027,0.061,-0.018,-20.325,-2.808,-12.329
1,1.084,0.068,-0.011,-18.677,-4.333,-13.306
1,1.107,0.071,0.018,-16.724,-4.761,-14.832
1,1.144,0.050,0.054,-11.719,-3.296,-17.517
1,1.172,0.006,0.044,-11.475,-5.066,-19.226
1,1.187,-0.017,0.042,-13.489,-11.169,-22.766
1,1.203,-0.035,0.060,-14.343,-13.672,-24.231
1,1.204,-0.017,0.065,-15.808,-15.686,-25.574
1,1.196,-0.001,0.027,-17.944,-17.029,-26.428
1,1.191,-0.050,-0.015,-20.081,-20.508,-29.236
1,1.182,-0.071,-0.044,-17.395,-21.851,-29.907
1,1.135,-0.076,-0.080,-16.663,-21.606,-29.114
1,1.101,-0.073,-0.078,-17.334,-15.930,-27.405
1,1.008,-0.103,-0.037,-29.358,-7.568,-24.475
1,0.874,-0.145,-0.079,-38.208,-5.493,-22.095
1,0.815,-0.157,-0.109,-46.997,-6.714,-17.273
1,0.772,-0.171,-0.112,-46.082,-7.141,-14.587
1,0.784,-0.168,-0.124,-35.522,-5.981,-8.545
1,0.847,-0.130,-0.125,-31.006,-4.456,-5.615
1,0.931,-0.109,-0.073,-26.550,3.113,-0.854
1,0.957,-0.118,-0.098,-25.024,7.935,-0.366
1,0.983,-0.118,-0.140,-22.400,7.263,-1.038
1,0.996,-0.106,-0.091,-17.761,5.615,-0.366
1,1.005,-0.088,-0.043,-19.958,5.066,0.244
1,1.006,-0.090,-0.053,-16.663,3.967,-0.366
1,1.021,-0.113,-0.033,-10.376,4.089,-0.793
1,0.999,-0.137,-0.002,-8.118,4.395,-0.732
1,0.971,-0.140,-0.006,-10.864,1.465,0.122
1,0.925,-0.126,-0.002,-9.399,-0.061,0.671
1,0.910,-0.120,0.006,-4.333,-1.648,1.343
1,0.894,-0.114,0.015,-2.991,-1.953,1.770
1,0.890,-0.114,0.016,-2.075,-2.197,2.808
1,0.895,-0.119,0.028,-2.014,-1.953,3.418
1,0.898,-0.121,0.035,-1.587,0.183,4.944
1,0.902,-0.118,0.045,0.549,1.770,5.737
1,0.898,-0.110,0.037,8.362,4.517,6.714
1,0.899,-0.113,0.034,12.390,4.944,6.958
1,0.908,-0.129,0.046,15.320,4.700,7.141
1,0.913,-0.140,0.054,14.160,4.456,7.263
1,0.918,-0.156,0.080,11.292,3.723,7.568
1,0.916,-0.159,0.067,12.634,3.235,8.118
1,0.918,-0.141,0.049,13.855,2.930,8.728
1,0.928,-0.124,0.053,16.907,2.991,10.193
1,0.961,-0.102,0.053,17.334,3.113,10.498
1,0.986,-0.101,0.055,16.418,4.883,10.803
1,1.035,-0.107,0.060,15.320,6.409,10.803
1,1.045,-0.112,0.042,15.259,10.498,10.681
1,1.035,-0.111,-0.004,16.174,12.268,10.742
1,1.026,-0.100,-0.004,18.127,13.489,11.414
1,1.018,-0.089,0.023,19.775,13.672,11.719
1,1.026,-0.087,0.045,22.644,13.550,12.634
1,1.062,-0.073,0.084,22.949,13.062,13.245
1,1.091,-0.082,0.087,23.315,11.414,13.367
1,1.173,-0.114,0.047,24.109,9.521,13.672
1,1.218,-0.106,0.047,30.945,4.028,16.296
1,1.270,-0.067,0.057,33.142,1.831,16.541
1,1.225,-0.057,0.001,29.541,-3.052,13.000
1,1.181,-0.057,-0.024,26.184,-6.836,10.986
1,1.088,-0.043,-0.088,17.639,-14.038,8.972
1,1.067,-0.032,-0.089,15.381,-18.860,8.362
1,1.066,-0.001,-0.076,15.015,-20.691,8.362
1,1.064,0.017,-0.095,11.963,-21.057,8.728
1,1.054,0.060,-0.115,12.878,-17.639,8.972
1,0.996,0.089,-0.127,20.569,-5.615,8.789
1,0.945,0.084,-0.139,24.963,-0.671,8.362
1,0.860,0.061,-0.119,32.654,2.808,8.057
1,0.836,0.051,-0.115,38.086,0.732,7.446
1,0.818,0.047,-0.140,38.452,-0.916,6.836
1,0.824,0.057,-0.152,35.645,-2.441,6.897
1,0.869,0.085,-0.163,36.133,-1.465,7.568
1,0.900,0.093,-0.167,38.269,2.380,8.789
1,0.951,0.090,-0.152,38.940,4.761,9.094
1,0.971,0.076,-0.146,43.762,9.460,9.277
1,1.011,0.056,-0.119,47.180,11.169,9.583
1,1.030,0.051,-0.090,52.307,13.855,10.132
1,1.033,0.044,-0.088,52.979,13.611,9.094
1,1.024,0.014,-0.082,50.842,12.512,7.812
1,1.007,-0.001,-0.089,43.213,9.705,4.822
1,0.954,-0.003,-0.080,36.743,7.690,3.906
1,0.930,0.009,-0.064,26.367,3.601,2.930
1,0.900,0.039,-0.067,22.583,2.197,2.686
1,0.897,0.053,-0.081,15.930,1.526,2.808
1,0.910,0.076,-0.083,14.099,2.136,3.174
1,0.943,0.088,-0.057,13.672,5.066,4.333
1,0.958,0.085,-0.049,13.977,8.240,4.944
1,0.967,0.091,-0.043,12.939,8.911,5.127
1,0.961,0.098,-0.050,11.414,9.949,5.249
1,0.945,0.088,-0.058,11.292,10.376,4.761
1,0.939,0.080,-0.049,10.864,10.254,3.845
1,0.925,0.077,-0.048,10.559,9.644,3.540
1,0.921,0.084,-0.052,10.498,7.812,2.991
1,0.928,0.099,-0.031,10.498,7.324,2.625
1,0.934,0.092,-0.025,8.301,7.629,0.916
1,0.940,0.058,-0.040,5.859,6.836,-0.305
1,0.942,0.046,-0.042,-1.648,3.357,-2.136
1,0.963,0.047,-0.050,-5.188,2.014,-2.625
1,0.977,0.054,-0.067,-4.761,0.610,-3.418
1,1.025,0.087,-0.004,-2.625,0.488,-3.052
1,1.046,0.102,0.028,-7.751,2.014,-2.014
1,1.064,0.086,-0.029,-12.268,2.441,-2.747
1,1.068,0.070,-0.055,-11.719,-0.488,-6.165
1,1.072,0.069,-0.027,-8.789,-2.686,-7.690
2,0.992,-0.085,-0.013,20.630,3.052,7.996
2,1.003,-0.082,-0.012,19.531,1.953,7.690
2,1.010,-0.081,-0.031,20.447,2.136,7.812
2,1.011,-0.080,-0.038,23.682,3.174,9.277
2,1.026,-0.079,-0.017,25.757,3.418,10.071
2,1.063,-0.084,0.003,30.212,2.502,10.803
2,1.076,-0.088,-0.004,31.128,0.977,10.742
2,1.105,-0.085,-0.044,25.391,-6.409,10.193
2,1.131,-0.076,-0.051,20.691,-15.503,10.254
2,1.204,-0.036,0.013,20.264,-17.700,11.414
2,1.236,-0.026,0.009,17.700,-19.775,13.428
2,1.291,-0.033,-0.058,18.250,-21.851,13.733
2,1.311,-0.017,-0.078,21.667,-22.522,15.869
2,1.303,0.056,-0.125,21.057,-19.531,17.395
2,1.217,0.112,-0.111,19.104,-11.414,17.822
2,1.148,0.118,-0.096,22.827,-5.249,12.024
2,0.972,0.085,-0.133,24.353,-5.066,7.690
2,0.884,0.076,-0.150,24.902,-8.423,2.747
2,0.747,0.095,-0.146,23.865,-8.667,2.502
2,0.700,0.107,-0.164,19.531,-7.874,2.258
2,0.674,0.131,-0.206,20.630,-8.362,2.014
2,0.763,0.163,-0.151,24.841,-7.996,2.991
2,0.822,0.166,-0.141,26.062,-5.554,3.723
2,0.931,0.133,-0.157,27.893,1.648,4.578
2,0.964,0.113,-0.164,31.006,8.362,5.493
2,1.000,0.091,-0.138,35.828,10.376,6.042
2,1.010,0.080,-0.116,47.729,11.963,7.263
2,1.022,0.067,-0.084,49.683,11.597,7.935
2,1.038,0.063,-0.029,45.288,9.827,7.935
2,1.027,0.035,-0.026,38.696,10.315,6.775
2,0.999,0.018,-0.067,26.184,9.705,4.211
2,0.929,0.040,-0.052,24.231,8.850,3.723
2,0.875,0.072,-0.020,19.958,8.179,2.563
2,0.869,0.081,-0.029,9.705,6.897,1.221
2,0.904,0.101,-0.041,5.493,6.653,1.404
2,0.931,0.111,-0.042,0.610,9.949,3.235
2,0.967,0.115,-0.058,-0.366,13.184,4.333
2,0.974,0.112,-0.060,-0.793,17.090,5.737
2,0.967,0.110,-0.038,-1.160,16.907,5.859
2,0.956,0.108,-0.029,-2.930,15.137,4.883
2,0.933,0.098,-0.014,-4.028,14.404,4.211
2,0.924,0.091,-0.014,-6.958,13.367,3.479
2,0.923,0.085,-0.017,-10.986,12.512,2.930
2,0.914,0.083,-0.027,-12.817,12.512,2.686
2,0.905,0.089,-0.049,-15.198,11.414,2.075
2,0.909,0.101,-0.064,-16.785,9.888,1.892
2,0.920,0.102,-0.071,-19.531,8.728,1.099
2,0.951,0.098,-0.070,-20.813,8.179,0.610
2,0.982,0.089,-0.048,-19.897,6.775,0.183
2,0.997,0.094,-0.041,-16.663,6.470,0.671
2,1.035,0.100,-0.057,-16.479,6.165,0.488
2,1.057,0.101,-0.056,-19.165,3.418,-1.648
2,1.085,0.105,-0.042,-20.203,2.319,-3.479
2,1.078,0.101,-0.055,-19.470,2.197,-7.629
2,1.072,0.094,-0.063,-17.944,1.343,-10.559
2,1.090,0.080,-0.055,-17.883,-0.854,-11.292
2,1.120,0.073,-0.034,-18.127,-7.568,-11.475
2,1.201,0.053,0.011,-18.127,-9.644,-11.108
2,1.236,0.040,0.014,-20.020,-10.498,-10.559
2,1.258,0.050,0.001,-19.775,-10.071,-11.292
2,1.233,0.034,-0.091,-17.883,-12.207,-15.747
2,1.229,0.022,-0.126,-22.278,-22.766,-20.264
2,1.213,0.042,-0.087,-24.841,-26.245,-21.118
2,1.182,0.055,-0.073,-25.757,-20.630,-20.447
2,1.074,0.025,-0.174,-22.522,-14.038,-20.447
2,0.962,-0.028,-0.206,-16.785,-5.859,-20.020
2,0.910,-0.041,-0.172,-22.949,-0.854,-15.869
2,0.820,-0.073,-0.195,-25.452,2.319,-13.977
2,0.792,-0.087,-0.224,-27.283,2.808,-10.864
2,0.786,-0.087,-0.235,-27.344,0.305,-9.460
2,0.800,-0.079,-0.238,-26.733,-5.127,-7.690
2,0.855,-0.072,-0.218,-28.198,-6.287,-7.263
2,0.909,-0.081,-0.186,-32.593,-3.845,-7.324
2,0.924,-0.083,-0.179,-35.950,1.038,-6.409
2,0.934,-0.074,-0.187,-36.072,2.808,-5.188
2,0.943,-0.063,-0.178,-33.508,3.357,-2.136
2,0.988,-0.047,-0.115,-31.982,3.418,-0.793
2,1.021,-0.053,-0.079,-30.151,5.249,0.000
2,1.019,-0.066,-0.076,-27.954,7.996,-0.305
2,0.981,-0.085,-0.082,-25.513,9.277,0.122
2,0.953,-0.083,-0.085,-18.433,10.132,1.892
2,0.921,-0.067,-0.088,-15.442,9.338,2.686
2,0.941,-0.054,-0.069,-13.062,5.615,3.601
2,0.955,-0.058,-0.068,-12.512,3.601,3.784
2,0.958,-0.066,-0.076,-12.207,3.357,3.906
2,0.944,-0.070,-0.045,-8.911,4.456,4.944
2,0.934,-0.071,-0.034,-6.226,6.409,6.287
2,0.920,-0.075,-0.025,-4.333,6.470,6.470
2,0.915,-0.074,-0.020,0.000,5.554,6.653
2,0.909,-0.074,-0.025,1.221,5.249,6.958
2,0.909,-0.083,-0.040,2.930,5.066,7.202
2,0.911,-0.087,-0.040,6.104,5.005,7.080
2,0.915,-0.095,-0.027,7.935,4.700,6.714
2,0.920,-0.099,-0.031,11.658,2.563,4.883
2,0.948,-0.093,-0.052,13.245,0.732,3.967
2,0.969,-0.083,-0.055,14.221,-0.977,2.991
2,0.996,-0.054,-0.069,14.099,-0.366,3.296
2,1.002,-0.049,-0.070,19.470,2.014,4.089
2,1.011,-0.073,-0.042,23.926,2.808,4.150
2,1.023,-0.094,-0.025,28.809,1.282,4.395
2,1.032,-0.097,-0.021,29.175,-0.793,4.578
2,1.045,-0.089,0.001,29.602,-4.333,5.371
2,1.049,-0.087,0.001,31.616,-5.981,5.859
2,1.062,-0.091,-0.076,32.959,-7.690,5.615
2,1.096,-0.084,-0.060,31.677,-13.306,6.409
2,1.172,-0.049,-0.026,26.428,-15.381,7.141
2,1.200,-0.031,-0.050,16.724,-16.479,8.301
2,1.249,-0.015,-0.088,15.869,-16.174,9.277
2,1.282,-0.018,-0.084,17.883,-14.282,11.841
2,1.273,-0.017,-0.099,23.437,-12.573,13.123
2,1.207,0.002,-0.123,27.466,-12.024,12.695
2,1.157,0.015,-0.135,30.579,-10.986,9.094
2,1.035,0.047,-0.197,28.381,-10.925,6.470
2,0.973,0.069,-0.210,20.630,-11.536,2.075
2,0.865,0.101,-0.170,6.714,-10.742,-1.221
2,0.772,0.109,-0.160,2.686,-10.315,-2.686
2,0.752,0.112,-0.176,5.249,-10.437,-4.028
2,0.772,0.127,-0.190,6.287,-10.010,-3.418
2,0.837,0.143,-0.165,11.292,-5.920,-0.366
2,0.880,0.130,-0.162,21.484,0.793,1.465
2,0.937,0.100,-0.172,24.841,3.601,1.953
2,0.952,0.090,-0.175,30.701,5.859,3.357
2,0.994,0.078,-0.154,34.058,5.249,4.211
2,1.016,0.078,-0.132,34.607,3.723,6.104
2,1.042,0.081,-0.093,33.875,4.456,6.409
2,1.046,0.063,-0.092,33.875,7.751,3.845
2,1.040,0.012,-0.087,32.104,8.606,2.014
2,0.990,-0.002,-0.065,25.513,9.216,-0.183
2,0.956,-0.003,-0.051,18.250,9.705,-0.732
2,0.891,-0.002,-0.047,13.733,9.338,-0.427
2,0.872,0.003,-0.060,3.113,6.287,0.732
2,0.867,0.024,-0.083,-1.587,4.211,1.343
2,0.891,0.055,-0.075,-7.874,2.258,2.930
2,0.912,0.067,-0.052,-9.888,3.540,4.883
2,0.955,0.070,-0.017,-10.315,5.188,5.737
2,0.973,0.064,-0.023,-12.451,8.301,6.958
2,1.010,0.055,-0.061,-13.916,8.728,7.324
2,1.009,0.053,-0.069,-16.479,8.118,7.812
2,0.995,0.054,-0.062,-18.860,7.507,7.629
2,0.968,0.036,-0.039,-21.118,6.836,7.141
2,0.960,0.024,-0.022,-26.611,5.615,6.165
2,0.955,0.018,-0.006,-29.480,5.432,6.104
2,0.956,0.019,-0.018,-36.682,4.211,5.737
2,0.950,0.016,-0.090,-39.856,2.563,5.066
2,0.946,0.021,-0.115,-40.588,-0.854,2.869
2,0.949,0.043,-0.037,-42.725,-1.587,0.854
2,0.931,0.040,-0.040,-46.265,-1.160,-0.244
2,0.925,0.037,-0.070,-44.617,0.244,-1.526
2,0.938,0.052,-0.074,-41.382,0.732,-1.282
2,0.989,0.049,-0.049,-39.246,0.122,-0.732
2,1.021,0.043,-0.036,-40.527,-2.869,-1.099
2,1.087,0.036,-0.006,-41.138,-3.906,-1.404
2,1.114,0.033,-0.007,-43.091,-3.540,-2.686
2,1.139,0.029,-0.005,-44.983,-3.540,-3.601
2,1.131,0.037,0.006,-45.044,-4.578,-5.615
2,1.124,0.027,-0.016,-36.255,-9.277,-8.972
2,1.130,0.027,0.002,-39.917,-13.428,-9.705
2,1.149,0.029,0.015,-48.096,-16.846,-11.414
2,1.175,0.014,-0.001,-50.232,-17.822,-13.062
2,1.180,0.001,-0.036,-51.453,-22.888,-16.174
2,1.203,-0.034,-0.140,-52.612,-27.344,-17.517
2,1.209,-0.020,-0.115,-54.199,-33.875,-19.348
2,1.191,-0.002,-0.078,-52.856,-25.269,-20.996
2,1.109,-0.014,-0.084,-52.063,-17.090,-22.400
2,1.040,-0.037,-0.128,-58.105,-6.165,-22.766
2,0.864,-0.069,-0.160,-65.430,-4.639,-21.057
2,0.742,-0.089,-0.169,-75.623,-3.357,-16.357
2,0.726,-0.091,-0.182,-79.163,-5.981,-10.925
2,0.788,-0.082,-0.172,-78.186,-7.996,-8.484
2,0.899,-0.065,-0.163,-71.594,-6.958,-4.700
2,0.947,-0.052,-0.162,-69.824,-0.916,-2.380
2,1.008,-0.050,-0.138,-71.411,2.563,-1.831
2,1.019,-0.058,-0.126,-71.899,9.277,-1.526
2,1.027,-0.083,-0.131,-70.313,10.498,-1.648
2,1.029,-0.110,-0.104,-66.772,7.141,-3.174
2,1.023,-0.112,-0.077,-71.289,3.174,-4.883
2,1.000,-0.113,-0.043,-73.914,2.380,-5.371
2,0.981,-0.115,-0.042,-70.435,2.502,-5.005
2,0.940,-0.112,-0.054,-68.481,2.563,-4.028
2,0.926,-0.108,-0.049,-67.627,2.380,-2.319
2,0.912,-0.099,-0.037,-66.650,2.441,-2.075
2,0.909,-0.097,-0.053,-63.049,2.563,-1.831
2,0.910,-0.088,-0.063,-59.265,2.441,-0.061
2,0.935,-0.078,-0.039,-59.204,2.686,1.282
2,0.949,-0.089,-0.020,-59.082,5.249,2.869
2,0.956,-0.119,-0.011,-55.908,7.019,3.357
2,0.950,-0.123,-0.051,-47.546,8.972,4.700
2,0.941,-0.119,-0.068,-41.870,9.216,5.493
2,0.939,-0.108,0.006,-39.124,9.888,5.981
2,0.931,-0.111,0.029,-38.696,10.925,6.836
2,0.910,-0.125,-0.026,-39.490,10.254,6.714
2,0.917,-0.122,-0.033,-36.072,8.911,7.141
2,0.937,-0.109,-0.006,-32.104,9.460,7.812
2,0.942,-0.108,-0.010,-24.048,10.315,8.667
2,0.951,-0.104,-0.002,-20.996,10.010,8.789
2,0.966,-0.112,-0.010,-15.137,8.606,8.362
2,0.972,-0.114,-0.027,-14.526,4.883,7.874
2,0.989,-0.097,-0.023,-15.320,2.808,8.423
2,0.997,-0.087,-0.017,-14.465,0.488,10.254
2,1.021,-0.073,-0.018,-13.123,0.000,10.986
3,1.087,0.003,0.019,-51.697,-3.174,-8.728
3,1.118,-0.025,0.055,-49.255,-4.150,-9.277
3,1.139,-0.041,0.063,-49.133,-7.080,-9.644
3,1.189,-0.064,0.042,-50.171,-9.705,-10.071
3,1.217,-0.060,-0.006,-51.575,-15.259,-11.597
3,1.210,-0.054,-0.043,-53.162,-20.203,-12.756
3,1.173,-0.045,-0.096,-52.185,-21.667,-12.695
3,1.156,-0.034,-0.087,-50.354,-20.935,-10.803
3,1.128,-0.022,-0.061,-50.354,-18.372,-9.216
3,1.096,-0.051,-0.073,-50.171,-17.883,-9.155
3,1.070,-0.071,-0.064,-45.959,-13.000,-9.155
3,0.960,-0.117,-0.097,-44.556,-5.737,-8.057
3,0.850,-0.140,-0.155,-46.753,-4.517,-7.080
3,0.812,-0.140,-0.177,-53.650,-6.897,-4.700
3,0.779,-0.131,-0.178,-55.298,-7.996,-3.601
3,0.784,-0.132,-0.149,-51.086,-5.249,-2.380
3,0.816,-0.154,-0.102,-47.180,-1.892,-2.014
3,0.836,-0.172,-0.099,-44.983,3.540,-1.587
3,0.900,-0.192,-0.094,-48.645,3.479,-1.648
3,0.967,-0.180,-0.081,-60.425,-0.061,-2.319
3,1.001,-0.158,-0.074,-67.078,-2.075,-2.136
3,1.056,-0.103,-0.076,-67.200,-1.526,-1.648
3,1.070,-0.075,-0.093,-64.331,2.502,-0.549
3,1.078,-0.042,-0.042,-63.049,5.981,-0.061
3,1.024,-0.069,-0.066,-60.425,13.550,-0.122
3,0.993,-0.089,-0.058,-48.523,17.151,-0.977
3,0.922,-0.112,-0.018,-43.274,17.944,-1.099
3,0.888,-0.118,-0.020,-37.903,14.709,-1.526
3,0.857,-0.112,-0.021,-36.560,11.475,-1.526
3,0.883,-0.115,0.002,-35.583,6.958,-0.793
3,0.901,-0.124,0.007,-34.485,8.484,0.061
3,0.919,-0.141,0.010,-32.959,11.353,0.793
3,0.919,-0.145,0.008,-28.076,16.357,2.441
3,0.920,-0.152,0.000,-26.367,17.029,3.052
3,0.919,-0.153,-0.006,-26.978,15.137,4.211
3,0.918,-0.152,-0.007,-27.588,13.611,4.700
3,0.922,-0.138,0.010,-26.245,11.230,5.493
3,0.924,-0.127,0.015,-23.437,10.193,5.920
3,0.935,-0.109,-0.002,-21.790,9.888,5.920
3,0.944,-0.106,-0.010,-20.203,8.057,5.859
3,0.963,-0.117,0.004,-19.897,7.080,4.944
3,0.986,-0.132,-0.011,-18.188,6.958,4.211
3,1.000,-0.137,-0.023,-13.245,6.165,3.540
3,1.020,-0.131,-0.045,-11.414,5.493,4.028
3,1.024,-0.120,-0.036,-8.240,6.714,6.104
3,1.018,-0.118,-0.007,-6.531,8.545,6.958
3,1.012,-0.137,0.002,-4.333,10.376,7.751
3,1.017,-0.146,0.004,-1.526,9.949,8.484
3,1.044,-0.160,0.007,0.122,9.155,9.033
3,1.069,-0.165,0.001,-0.854,4.822,9.827
3,1.144,-0.137,0.014,-2.075,1.526,10.254
3,1.183,-0.115,0.054,0.671,-1.648,10.559
3,1.201,-0.115,0.040,1.404,-1.770,9.888
3,1.162,-0.139,-0.033,-5.432,-7.568,7.507
3,1.141,-0.135,-0.031,-13.611,-15.564,5.859
3,1.088,-0.111,-0.063,-14.465,-17.517,5.371
3,1.070,-0.093,-0.102,-11.169,-19.714,5.737
3,1.079,-0.037,-0.120,-8.789,-19.775,6.897
3,1.094,0.008,-0.075,-3.967,-15.442,8.972
3,1.083,0.010,-0.075,-2.686,-10.376,7.507
3,1.018,0.002,-0.114,-4.517,-9.949,6.165
3,0.971,0.004,-0.122,-8.850,-10.071,5.310
3,0.876,0.005,-0.135,-9.949,-10.071,5.615
3,0.841,0.014,-0.154,-8.423,-13.794,5.554
3,0.826,0.050,-0.125,-7.446,-16.296,5.493
3,0.860,0.066,-0.127,-9.460,-15.076,4.822
3,0.887,0.066,-0.135,-5.249,-7.874,3.479
3,0.940,0.054,-0.112,-1.953,-3.479,3.052
3,0.956,0.042,-0.107,1.526,2.930,3.113
3,0.980,0.015,-0.111,3.479,3.723,3.357
3,0.995,0.010,-0.089,9.277,3.540,4.822
3,1.025,0.005,-0.023,11.780,4.150,5.615
3,1.027,-0.002,-0.009,11.658,5.798,5.432
3,1.000,-0.008,-0.029,9.705,5.737,4.272
3,0.982,-0.017,-0.042,4.761,3.601,1.282
3,0.952,-0.023,-0.042,1.770,1.831,0.244
3,0.923,0.008,-0.025,-2.991,-0.549,-0.549
3,0.919,0.019,-0.022,-6.531,0.061,-0.977
3,0.927,0.021,-0.024,-8.667,0.732,-1.038
3,0.936,0.020,-0.024,-12.268,2.441,-0.305
3,0.950,0.019,-0.033,-13.489,3.418,0.427
3,0.964,0.029,-0.014,-16.113,4.150,2.319
3,0.973,0.030,-0.008,-15.015,6.836,3.540
3,0.983,0.033,-0.004,-13.977,8.118,3.723
3,0.974,0.041,0.007,-13.245,10.071,4.089
3,0.964,0.038,0.005,-15.015,11.047,3.784
3,0.948,0.020,-0.003,-16.968,10.620,3.479
3,0.945,0.011,-0.002,-21.973,8.911,3.052
3,0.934,0.003,0.008,-24.109,7.996,2.808
3,0.926,0.004,0.008,-24.597,6.714,2.380
3,0.922,0.012,-0.012,-23.926,6.226,2.197
3,0.944,0.031,-0.043,-23.560,5.127,1.709
3,0.957,0.041,-0.055,-23.804,4.028,0.305
3,0.979,0.052,-0.045,-23.560,4.150,-0.366
3,0.997,0.044,-0.021,-21.912,5.554,-2.075
3,1.039,0.009,0.043,-21.362,5.981,-3.052
3,1.053,-0.002,0.055,-21.606,5.310,-4.395
3,1.075,0.002,0.036,-21.057,3.967,-5.066
3,1.084,0.024,-0.029,-20.630,-0.122,-6.836
3,1.089,0.034,-0.044,-20.813,-6.226,-9.521
3,1.119,0.021,0.004,-20.752,-8.423,-10.925
3,1.137,-0.002,0.020,-22.156,-11.963,-13.184
3,1.169,-0.034,0.040,-25.879,-14.099,-13.306
3,1.177,-0.045,-0.022,-33.936,-14.709,-12.085
3,1.181,-0.053,-0.095,-25.024,-16.663,-11.353
3,1.227,-0.048,-0.109,-17.761,-17.761,-10.742
3,1.239,-0.041,-0.073,-15.259,-14.587,-10.742
3,1.177,-0.042,-0.100,-21.484,-11.108,-11.658
3,1.069,-0.079,-0.104,-26.184,-2.075,-13.672
3,0.988,-0.108,-0.081,-22.644,4.456,-14.160
3,0.807,-0.152,-0.111,-22.888,4.578,-13.550
3,0.744,-0.161,-0.155,-28.503,-3.906,-10.925
3,0.737,-0.122,-0.180,-32.288,-10.010,-8.789
3,0.784,-0.096,-0.160,-36.072,-17.517,-4.822
3,0.896,-0.063,-0.136,-36.011,-17.151,-3.235
3,0.976,-0.069,-0.142,-33.813,-10.010,-2.014
3,0.997,-0.079,-0.135,-30.884,-0.183,-2.380
3,0.992,-0.115,-0.140,-28.564,4.272,-2.502
3,0.978,-0.130,-0.152,-25.757,7.568,-1.831
3,0.975,-0.121,-0.135,-30.640,3.845,0.061
3,1.008,-0.094,-0.082,-33.875,3.113,0.671
3,1.020,-0.092,-0.075,-34.180,6.287,0.427
3,1.016,-0.099,-0.084,-32.837,8.423,0.122
3,1.003,-0.098,-0.079,-30.334,10.986,0.610
3,0.969,-0.110,-0.032,-28.198,12.207,1.099
3,0.949,-0.125,-0.023,-22.827,14.099,1.526
3,0.911,-0.146,-0.022,-21.545,13.672,1.587
3,0.895,-0.150,-0.026,-22.339,11.597,1.587
3,0.872,-0.146,-0.051,-24.292,10.193,1.343
3,0.874,-0.141,-0.048,-28.687,7.202,0.977
3,0.885,-0.134,-0.032,-29.663,6.042,1.648
3,0.908,-0.115,-0.009,-28.320,7.019,2.319
3,0.922,-0.106,-0.015,-23.071,10.132,3.052
3,0.966,-0.106,-0.036,-18.005,11.597,2.686
3,1.007,-0.106,-0.079,-16.235,11.963,2.380
3,1.017,-0.103,-0.102,-11.047,11.841,1.892
3,1.016,-0.105,-0.097,-6.958,11.292,1.709
3,1.010,-0.109,-0.066,-1.526,9.583,1.892
3,1.015,-0.118,0.002,0.000,8.118,1.892
3,1.033,-0.126,-0.002,0.061,3.906,2.136
3,1.040,-0.126,-0.034,-2.502,-1.831,3.906
3,1.054,-0.116,-0.063,-1.343,-3.723,5.188
3,1.054,-0.111,-0.057,6.592,-3.540,6.775
3,1.046,-0.108,-0.003,10.925,-2.991,7.080
3,1.042,-0.105,0.025,12.146,-2.930,7.385
3,1.048,-0.100,0.014,9.277,-3.845,7.202
3,1.052,-0.097,-0.028,4.456,-7.507,7.080
3,1.077,-0.056,0.001,4.456,-8.728,8.179
3,1.091,-0.033,-0.015,3.845,-6.836,10.986
3,1.100,-0.037,-0.049,1.892,-5.615,11.658
3,1.105,-0.061,-0.020,5.127,-4.456,11.536
3,1.083,-0.075,-0.007,10.620,-1.160,11.169
3,1.015,-0.098,-0.026,10.925,-1.892,10.803
3,0.961,-0.092,-0.036,12.085,-4.089,10.132
3,0.937,-0.094,-0.054,7.629,-4.822,8.423
3,0.917,-0.099,-0.090,2.747,-5.981,7.080
3,0.916,-0.097,-0.096,-5.859,-9.766,4.639
3,0.919,-0.070,-0.100,-11.292,-12.878,4.761
3,0.945,-0.021,-0.090,-12.268,-13.306,5.615
3,0.961,-0.000,-0.092,-11.108,-10.559,6.958
3,0.976,0.017,-0.109,-8.850,-7.690,6.958
3,0.967,0.015,-0.120,-1.892,-1.892,5.554
3,0.926,0.008,-0.143,0.671,-0.427,4.822
3,0.892,0.028,-0.156,2.747,-0.610,4.395
3,0.896,0.049,-0.156,4.150,-2.563,5.371
3,0.961,0.083,-0.132,5.249,-2.319,6.104
3,0.998,0.081,-0.136,7.812,1.892,6.287
3,1.037,0.051,-0.130,7.812,4.639,6.226
3,1.029,0.039,-0.125,9.338,9.705,6.958
3,0.995,0.036,-0.134,11.047,10.925,7.690
3,0.990,0.038,-0.125,13.611,8.301,9.155
3,1.004,0.042,-0.099,14.160,4.517,10.437
3,1.031,0.044,-0.061,13.489,4.822,10.986
3,1.034,0.033,-0.068,11.963,6.897,10.681
3,1.028,0.012,-0.085,10.925,6.836,10.071
3,1.022,0.010,-0.080,5.127,4.089,9.521
3,1.002,0.031,-0.044,2.197,2.930,9.460
3,0.988,0.041,-0.032,-1.465,3.906,9.583
3,0.969,0.060,-0.040,-2.441,5.310,9.705
3,0.961,0.068,-0.064,-5.798,7.568,10.193
3,0.955,0.069,-0.062,-10.376,8.545,10.986
3,0.941,0.057,-0.049,-9.155,9.460,11.230
3,0.938,0.049,-0.045,-6.470,11.536,11.292
3,0.941,0.043,-0.066,-6.165,12.146,11.047
3,0.942,0.061,-0.094,-8.179,12.634,10.803
3,0.940,0.075,-0.099,-12.878,14.038,10.376
3,0.934,0.080,-0.144,-14.282,14.771,9.583
3,0.943,0.076,-0.136,-13.733,15.076,7.996
3,0.970,0.053,-0.051,-15.381,15.076,7.507
3,0.985,0.037,-0.045,-24.170,14.832,6.531
3,0.995,0.039,-0.057,-26.550,13.611,6.042
3,1.003,0.067,-0.078,-27.039,12.756,5.920
3,1.000,0.077,-0.101,-29.663,7.812,4.578
3,1.009,0.084,-0.087,-31.006,4.883,3.662
3,1.016,0.085,-0.051,-33.875,4.944,1.953
3,1.019,0.076,-0.019,-35.339,6.897,1.160
3,1.014,0.068,-0.040,-34.851,7.935,-0.488
3,1.012,0.070,-0.050,-32.837,4.578,-1.831
3,1.003,0.075,-0.071,-33.691,2.380,-2.625
3,0.993,0.075,-0.067,-38.208,-1.038,-4.456
4,0.927,-0.168,-0.122,-16.602,10.193,-6.226
4,0.940,-0.176,-0.126,-16.541,6.531,-6.226
4,0.974,-0.192,-0.129,-12.390,4.761,-5.859
4,0.996,-0.189,-0.131,-9.766,5.493,-5.188
4,0.999,-0.186,-0.128,-6.226,8.301,-3.845
4,0.996,-0.187,-0.114,-5.066,9.216,-3.418
4,0.992,-0.190,-0.110,-2.747,9.338,-2.991
4,0.980,-0.186,-0.116,-3.174,8.484,-2.686
4,0.963,-0.174,-0.113,-4.700,6.470,-1.465
4,0.954,-0.167,-0.112,-2.808,5.005,0.061
4,0.948,-0.154,-0.106,-1.648,4.089,0.977
4,0.956,-0.151,-0.107,1.404,2.502,3.052
4,0.976,-0.154,-0.110,3.784,2.136,4.028
4,0.982,-0.155,-0.108,10.254,2.136,5.493
4,0.976,-0.157,-0.110,15.198,3.235,6.226
4,0.960,-0.160,-0.123,15.930,3.235,6.226
4,0.957,-0.163,-0.121,15.808,2.014,6.226
4,0.950,-0.170,-0.096,16.174,1.770,6.348
4,0.941,-0.172,-0.099,20.020,1.953,6.836
4,0.943,-0.172,-0.136,22.034,0.854,7.324
4,0.966,-0.163,-0.141,22.400,-4.333,8.728
4,1.041,-0.142,-0.115,21.729,-6.042,9.521
4,1.103,-0.139,-0.102,23.987,-4.944,10.376
4,1.114,-0.148,-0.119,27.466,-2.991,10.376
4,1.109,-0.150,-0.147,27.649,-4.028,10.620
4,1.105,-0.142,-0.143,27.527,-5.554,11.597
4,1.097,-0.138,-0.144,27.405,-5.249,11.902
4,1.091,-0.137,-0.150,26.184,-4.333,12.512
4,1.071,-0.131,-0.158,24.841,-3.174,12.939
4,1.033,-0.130,-0.158,20.935,1.587,13.245
4,1.007,-0.131,-0.152,17.456,6.287,12.634
4,0.949,-0.126,-0.156,14.954,7.141,12.512
4,0.921,-0.126,-0.176,13.245,5.432,12.207
4,0.901,-0.117,-0.157,13.550,3.540,12.390
4,0.901,-0.112,-0.152,8.789,-0.488,12.573
4,0.915,-0.104,-0.199,4.761,-2.930,12.268
4,0.956,-0.074,-0.177,0.305,-7.629,12.085
4,0.972,-0.062,-0.169,-2.319,-7.141,13.000
4,0.984,-0.046,-0.220,-3.052,-7.507,13.367
4,0.995,-0.031,-0.227,-3.906,-9.094,15.198
4,1.021,0.004,-0.207,-3.662,-8.240,16.174
4,1.018,-0.002,-0.223,-1.343,-3.296,16.418
4,1.001,-0.012,-0.234,3.845,-0.854,15.808
4,0.958,-0.017,-0.227,5.981,-2.136,15.991
4,0.939,-0.006,-0.219,7.507,-6.775,16.785
4,0.923,0.025,-0.218,7.568,-9.399,17.090
4,0.939,0.056,-0.228,7.446,-13.977,17.090
4,0.954,0.068,-0.228,5.371,-16.357,16.785
4,0.983,0.081,-0.201,4.089,-15.930,16.785
4,0.993,0.081,-0.194,4.028,-13.000,17.029
4,0.987,0.071,-0.225,5.432,-12.146,17.151
4,0.965,0.069,-0.220,9.338,-11.841,17.883
4,0.957,0.073,-0.202,12.207,-11.536,17.883
4,0.959,0.078,-0.155,11.902,-12.085,17.517
4,0.964,0.074,-0.150,9.888,-14.343,15.808
4,0.987,0.069,-0.166,7.751,-16.174,15.137
4,1.002,0.077,-0.157,-0.427,-18.799,14.893
4,1.027,0.092,-0.097,-5.920,-16.174,14.282
4,1.027,0.073,-0.056,-5.615,-13.672,13.428
4,1.009,0.061,-0.066,-2.014,-10.193,11.169
4,0.961,0.057,-0.095,1.343,-9.521,10.559
4,0.937,0.069,-0.105,0.427,-10.803,10.742
4,0.934,0.083,-0.096,-8.545,-13.855,11.536
4,0.944,0.102,-0.085,-10.193,-14.221,11.658
4,0.955,0.104,-0.084,-13.916,-12.268,12.207
4,0.971,0.095,-0.090,-15.930,-10.864,12.268
4,0.969,0.088,-0.093,-13.855,-9.155,10.986
4,0.962,0.095,-0.080,-13.123,-7.324,9.644
4,0.945,0.102,-0.053,-14.832,-6.653,9.155
4,0.943,0.104,-0.037,-20.996,-7.751,8.423
4,0.960,0.110,-0.029,-23.376,-8.484,8.240
4,0.977,0.108,-0.040,-24.292,-7.812,7.812
4,1.007,0.093,-0.056,-23.926,-6.409,7.446
4,1.002,0.084,-0.058,-24.597,-3.174,6.470
4,0.985,0.092,-0.051,-25.146,-1.038,5.493
4,0.952,0.110,-0.028,-26.672,-0.549,5.371
4,0.946,0.109,-0.038,-30.212,-2.197,4.578
4,0.958,0.103,-0.047,-30.029,-4.028,4.089
4,0.975,0.108,-0.028,-30.212,-4.822,3.601
4,0.983,0.107,-0.047,-34.546,-3.784,1.953
4,0.991,0.107,-0.043,-34.851,-3.723,0.977
4,0.985,0.116,-0.019,-31.555,-1.587,-0.366
4,0.964,0.115,-0.035,-30.090,-1.221,-1.038
4,0.969,0.099,-0.045,-27.527,-3.601,-2.686
4,0.979,0.093,-0.032,-26.001,-3.967,-4.517
4,0.991,0.082,-0.018,-26.733,-2.686,-5.493
4,0.989,0.075,-0.023,-30.823,-0.671,-7.507
4,0.981,0.070,-0.040,-32.959,-0.793,-8.240
4,0.980,0.080,-0.039,-35.156,-1.465,-9.155
4,0.981,0.089,-0.041,-36.621,-1.404,-10.437
4,0.987,0.101,-0.026,-37.109,-1.709,-11.230
4,0.993,0.100,-0.002,-36.621,-3.601,-12.817
4,1.016,0.099,0.035,-36.133,-5.188,-13.245
4,1.037,0.094,0.000,-37.048,-8.545,-13.794
4,1.047,0.089,-0.034,-37.659,-13.367,-13.916
4,1.068,0.084,-0.016,-35.583,-14.832,-13.977
4,1.066,0.086,0.010,-29.053,-13.977,-15.015
4,1.057,0.067,0.031,-27.893,-14.404,-15.930
4,1.057,0.050,0.028,-26.978,-18.982,-17.578
4,1.076,0.039,0.029,-25.085,-22.339,-16.846
4,1.129,0.053,0.006,-23.560,-22.522,-15.930
4,1.159,0.052,-0.012,-19.958,-19.409,-13.733
4,1.170,0.051,-0.032,-19.043,-15.869,-13.123
4,1.097,0.023,-0.031,-17.029,-5.859,-14.709
4,1.041,-0.004,-0.020,-12.695,1.038,-16.479
4,0.942,-0.029,0.008,-10.986,0.671,-16.235
4,0.914,-0.029,0.005,-10.986,-4.944,-14.526
4,0.899,-0.036,-0.053,-13.062,-9.094,-13.977
4,0.910,-0.043,-0.133,-15.930,-16.846,-13.306
4,0.915,-0.049,-0.142,-17.517,-21.362,-11.841
4,0.928,-0.023,-0.088,-16.785,-21.851,-10.254
4,0.937,-0.007,-0.063,-14.221,-19.897,-8.606
4,0.938,-0.021,-0.083,-15.869,-18.311,-8.850
4,0.919,-0.045,-0.097,-27.100,-15.503,-9.583
4,0.909,-0.060,-0.076,-39.490,-8.484,-10.559
4,0.901,-0.107,-0.016,-37.964,-3.906,-10.559
4,0.908,-0.130,0.004,-31.677,2.747,-8.911
4,0.928,-0.150,0.008,-29.785,4.883,-7.874
4,0.976,-0.123,-0.037,-27.161,6.165,-5.859
4,1.005,-0.108,-0.069,-25.391,4.517,-6.165
4,1.049,-0.087,-0.032,-25.208,4.028,-7.080
4,1.050,-0.086,-0.022,-29.480,3.540,-9.155
4,1.059,-0.080,0.001,-32.898,2.075,-9.399
4,1.059,-0.055,0.056,-29.480,2.563,-8.118
4,1.047,-0.054,0.056,-19.470,7.690,-7.751
4,1.006,-0.062,0.020,-15.808,8.362,-8.057
4,0.982,-0.062,0.020,-9.155,8.118,-7.263
4,0.940,-0.068,0.027,-8.362,8.301,-6.470
4,0.928,-0.086,0.013,-12.939,8.728,-5.554
4,0.938,-0.098,0.014,-14.465,8.118,-5.493
4,0.965,-0.119,0.013,-13.794,7.996,-5.493
4,0.976,-0.123,0.011,-14.893,8.423,-5.066
4,0.977,-0.127,0.006,-16.418,9.277,-4.700
4,0.970,-0.129,0.009,-14.587,12.207,-4.211
4,0.944,-0.135,0.018,-10.742,13.672,-4.150
4,0.921,-0.126,0.014,-6.653,15.381,-3.540
4,0.922,-0.124,0.008,-7.202,15.137,-3.113
4,0.946,-0.124,-0.005,-6.531,14.221,-3.296
4,0.974,-0.129,0.006,-2.686,13.794,-3.723
4,0.979,-0.127,-0.001,-1.099,14.099,-3.052
4,0.996,-0.127,0.008,-1.404,13.550,-2.380
4,1.004,-0.125,0.015,-0.305,13.245,-0.671
4,1.011,-0.116,0.010,-0.549,13.184,0.366
4,1.014,-0.114,0.010,-3.235,11.658,1.953
4,1.015,-0.115,0.011,-4.211,10.620,2.441
4,1.002,-0.108,0.018,-4.028,9.888,3.601
4,0.989,-0.106,0.013,-2.197,11.047,4.761
4,0.964,-0.110,-0.006,-1.160,11.414,5.127
4,0.963,-0.113,-0.012,0.427,9.888,5.676
4,0.974,-0.110,-0.016,0.732,8.850,6.104
4,0.977,-0.109,-0.018,1.282,7.935,7.202
4,0.975,-0.103,-0.023,2.319,7.935,7.629
4,0.967,-0.104,-0.023,5.737,7.751,8.118
4,0.965,-0.111,-0.017,9.949,5.615,7.507
4,0.973,-0.130,0.011,11.169,3.967,7.080
4,0.981,-0.136,0.023,12.085,0.610,6.409
4,1.005,-0.131,-0.009,11.536,-1.404,6.287
4,1.021,-0.113,-0.032,11.597,-5.615,7.202
4,1.056,-0.072,-0.050,13.367,-5.859,7.812
4,1.069,-0.063,-0.055,16.113,-3.052,8.484
4,1.086,-0.072,-0.054,17.273,-1.953,8.484
4,1.098,-0.079,-0.039,20.447,-1.282,9.094
4,1.132,-0.084,-0.024,21.179,-0.854,9.949
4,1.156,-0.075,-0.070,22.766,-0.183,11.780
4,1.167,-0.069,-0.072,26.733,0.549,12.939
4,1.162,-0.059,-0.052,25.757,1.221,12.878
4,1.138,-0.055,-0.051,21.606,4.089,11.108
4,1.053,-0.061,-0.044,21.362,6.226,9.827
4,1.000,-0.063,-0.023,18.005,8.972,8.423
4,0.880,-0.073,-0.055,15.747,7.996,7.935
4,0.817,-0.045,-0.116,13.733,0.000,8.118
4,0.823,-0.004,-0.117,10.376,-8.118,10.498
4,0.877,0.061,-0.140,8.850,-9.399,11.353
4,0.915,0.088,-0.137,11.230,-6.653,11.658
4,0.968,0.124,-0.125,13.428,-3.784,11.047
4,0.980,0.126,-0.139,15.137,0.977,9.521
4,0.979,0.120,-0.157,15.869,2.197,8.972
4,0.970,0.116,-0.158,18.616,3.540,9.094
4,0.957,0.109,-0.154,19.897,3.418,9.705
4,0.955,0.124,-0.120,20.874,2.075,11.719
4,0.961,0.127,-0.109,19.897,1.709,12.207
4,0.982,0.108,-0.103,16.724,1.587,10.620
4,0.989,0.095,-0.099,16.357,1.404,9.277
4,0.992,0.068,-0.082,18.433,1.953,7.263
4,0.989,0.057,-0.092,19.836,2.686,6.287
4,0.995,0.057,-0.084,19.836,2.380,5.005
4,1.002,0.059,-0.070,18.494,2.441,4.578
4,1.008,0.061,-0.070,12.146,3.479,3.845
4,1.007,0.069,-0.072,3.113,3.296,3.784
4,0.996,0.099,-0.058,0.549,3.723,4.150
4,0.988,0.106,-0.059,-0.244,5.493,4.333
4,0.974,0.099,-0.083,0.671,5.737,3.906
4,0.964,0.099,-0.092,4.211,6.348,2.625
4,0.947,0.095,-0.083,5.798,7.507,2.197
4,0.945,0.095,-0.068,6.470,9.155,2.014
4,0.961,0.095,-0.044,6.409,9.155,2.014
4,0.979,0.090,-0.070,4.639,8.972,1.587
4,0.982,0.088,-0.085,1.709,9.094,1.343
4,0.975,0.089,-0.080,1.038,9.766,1.160
4,0.970,0.089,-0.069,0.854,11.841,1.038
5,0.833,-0.082,-0.146,-34.729,-10.437,-10.376
5,0.937,-0.089,-0.143,-34.790,-8.057,-9.216
5,0.970,-0.102,-0.168,-35.583,-2.258,-8.850
5,0.995,-0.152,-0.227,-34.668,0.061,-8.667
5,0.967,-0.171,-0.230,-27.832,3.296,-6.836
5,0.946,-0.171,-0.218,-24.475,4.578,-4.333
5,0.918,-0.175,-0.188,-25.452,4.272,-3.784
5,0.928,-0.170,-0.169,-27.283,2.075,-4.456
5,0.947,-0.155,-0.164,-28.381,-0.610,-5.249
5,0.993,-0.129,-0.147,-28.931,-0.244,-5.371
5,1.009,-0.131,-0.171,-31.738,2.563,-5.005
5,1.005,-0.140,-0.190,-31.738,2.869,-3.601
5,0.995,-0.137,-0.175,-29.541,1.831,-2.502
5,0.991,-0.130,-0.149,-23.865,0.732,-0.488
5,0.982,-0.119,-0.101,-21.790,0.549,0.061
5,0.975,-0.120,-0.088,-20.020,-0.122,-0.061
5,0.968,-0.130,-0.089,-20.752,-0.549,-0.366
5,0.953,-0.140,-0.142,-22.217,-0.366,-0.793
5,0.949,-0.139,-0.134,-21.606,0.183,-0.610
5,0.936,-0.148,-0.127,-22.339,0.916,-0.366
5,0.937,-0.152,-0.135,-24.048,1.892,0.000
5,0.950,-0.161,-0.116,-22.156,2.686,0.122
5,0.948,-0.163,-0.086,-16.724,4.700,0.061
5,0.943,-0.165,-0.099,-15.564,3.479,-0.793
5,0.955,-0.163,-0.114,-15.625,2.258,-1.282
5,0.965,-0.156,-0.105,-15.442,1.526,-1.770
5,0.967,-0.144,-0.115,-14.832,2.625,-1.587
5,0.964,-0.144,-0.128,-11.658,6.287,-0.854
5,0.966,-0.143,-0.115,-8.484,8.423,0.427
5,0.968,-0.149,-0.078,-7.080,9.033,0.916
5,0.966,-0.156,-0.065,-3.662,9.583,1.404
5,0.958,-0.157,-0.057,-0.610,7.324,1.770
5,0.950,-0.150,-0.061,0.854,5.737,2.075
5,0.949,-0.146,-0.070,3.052,2.991,3.174
5,0.956,-0.132,-0.089,4.333,2.136,4.028
5,0.962,-0.125,-0.097,8.240,1.953,5.920
5,0.989,-0.108,-0.061,10.315,2.258,6.897
5,1.000,-0.117,-0.070,15.381,3.906,7.568
5,0.999,-0.121,-0.071,19.348,2.991,7.874
5,0.992,-0.130,-0.057,21.606,2.075,8.301
5,0.989,-0.131,-0.059,24.292,0.244,9.338
5,0.995,-0.133,-0.050,24.902,-0.305,9.949
5,0.987,-0.137,-0.043,27.222,0.122,10.925
5,0.981,-0.145,-0.042,29.175,0.061,10.803
5,0.971,-0.160,-0.036,30.090,-0.610,10.498
5,0.973,-0.161,-0.039,30.334,-3.296,9.644
5,0.994,-0.150,-0.048,29.358,-5.188,9.460
5,1.046,-0.121,-0.077,27.405,-8.057,9.827
5,1.082,-0.103,-0.084,27.100,-9.033,10.925
5,1.153,-0.084,-0.090,27.283,-8.057,11.353
5,1.181,-0.086,-0.105,28.076,-6.042,11.475
5,1.220,-0.088,-0.131,29.358,-5.737,11.719
5,1.230,-0.079,-0.138,31.189,-4.456,13.123
5,1.222,-0.054,-0.159,30.579,-3.479,13.855
5,1.199,-0.044,-0.165,31.738,-0.732,13.306
5,1.106,-0.042,-0.172,33.203,1.160,11.841
5,0.975,-0.059,-0.166,31.616,2.441,8.850
5,0.906,-0.058,-0.164,29.663,-0.244,7.874
5,0.799,-0.017,-0.178,30.579,-2.625,7.996
5,0.781,0.037,-0.203,29.297,-8.301,8.606
5,0.804,0.058,-0.211,22.949,-12.329,9.338
5,0.879,0.090,-0.195,20.935,-12.268,9.583
5,0.906,0.098,-0.193,21.362,-8.301,10.315
5,0.927,0.118,-0.237,21.484,-6.165,11.108
5,0.941,0.127,-0.246,23.865,-3.418,12.939
5,0.969,0.119,-0.217,26.001,-2.380,13.611
5,0.973,0.106,-0.209,31.067,-1.831,14.038
5,0.965,0.084,-0.214,33.142,-3.052,14.160
5,0.968,0.082,-0.194,34.241,-6.042,13.977
5,0.992,0.076,-0.155,33.508,-6.958,13.306
5,1.029,0.059,-0.147,28.870,-8.728,11.780
5,1.051,0.055,-0.141,23.865,-11.047,10.681
5,1.070,0.050,-0.120,21.484,-10.620,9.766
5,1.052,0.039,-0.117,16.052,-6.226,7.202
5,0.970,0.024,-0.126,13.550,-4.333,5.859
5,0.927,0.028,-0.118,10.193,-3.906,4.761
5,0.875,0.060,-0.093,9.277,-4.150,5.005
5,0.875,0.075,-0.089,5.066,-5.371,6.104
5,0.909,0.086,-0.088,1.709,-5.920,6.714
5,0.943,0.093,-0.113,-3.357,-5.371,7.751
5,0.957,0.093,-0.110,-4.333,-5.066,7.751
5,0.966,0.095,-0.100,-2.441,-4.272,7.446
5,0.965,0.104,-0.101,1.343,-3.296,7.385
5,0.970,0.118,-0.089,2.014,-3.662,7.507
5,0.978,0.120,-0.078,0.366,-4.211,7.629
5,0.984,0.106,-0.055,-4.517,-2.869,6.836
5,0.969,0.081,-0.052,-6.714,-1.709,6.165
5,0.959,0.076,-0.057,-9.216,-0.244,5.005
5,0.948,0.069,-0.062,-9.827,-0.122,4.700
5,0.951,0.068,-0.056,-12.329,-0.671,4.211
5,0.972,0.071,-0.047,-14.648,-1.160,4.150
5,0.986,0.077,-0.047,-18.555,-1.465,3.967
5,1.006,0.086,-0.039,-20.020,-0.977,3.540
5,0.999,0.081,-0.021,-22.522,0.366,1.831
5,0.987,0.074,-0.017,-23.315,0.366,0.793
5,0.972,0.059,-0.017,-24.719,-0.916,-1.160
5,0.972,0.055,-0.022,-15.625,-1.038,-2.319
5,0.982,0.069,-0.036,-16.357,-0.793,-2.014
5,0.997,0.101,-0.039,-22.888,0.305,-0.977
5,1.010,0.105,-0.049,-24.780,2.380,-1.587
5,1.029,0.089,-0.052,-26.245,2.747,-2.258
5,1.025,0.075,-0.049,-28.015,2.991,-3.357
5,0.999,0.055,-0.034,-27.283,2.747,-3.723
5,0.987,0.050,-0.023,-24.292,0.977,-4.333
5,0.987,0.053,-0.005,-23.437,-0.183,-4.517
5,0.997,0.057,0.005,-25.696,-2.380,-4.456
5,1.026,0.064,0.020,-29.175,-3.418,-4.639
5,1.041,0.071,-0.005,-33.325,-6.226,-6.104
5,1.049,0.074,0.019,-31.921,-8.057,-7.324
5,1.031,0.065,0.028,-33.081,-8.301,-7.812
5,1.023,0.061,0.006,-35.339,-10.071,-9.399
5,1.038,0.045,0.008,-32.898,-11.353,-10.376
5,1.046,0.044,0.024,-32.166,-12.146,-11.414
5,1.043,0.041,-0.011,-33.020,-13.123,-11.841
5,1.050,0.037,-0.032,-34.058,-17.029,-12.939
5,1.092,0.023,-0.067,-33.630,-18.921,-13.855
5,1.126,0.016,-0.084,-31.982,-21.179,-15.381
5,1.195,0.019,-0.060,-29.907,-20.813,-15.503
5,1.205,0.042,-0.035,-22.705,-15.869,-16.235
5,1.181,0.037,-0.054,-20.996,-8.728,-19.287
5,1.084,-0.016,-0.079,-24.170,-6.592,-21.179
5,1.016,-0.040,-0.070,-28.931,-5.249,-22.888
5,0.886,-0.054,-0.064,-28.015,-5.676,-22.400
5,0.842,-0.045,-0.069,-24.048,-7.141,-19.409
5,0.823,-0.019,-0.085,-23.804,-9.521,-17.029
5,0.873,-0.008,-0.121,-24.963,-11.047,-16.235
5,0.904,-0.008,-0.136,-26.428,-12.451,-14.709
5,0.953,-0.031,-0.153,-25.269,-11.963,-14.221
5,0.965,-0.048,-0.141,-20.630,-10.559,-13.611
5,0.962,-0.060,-0.130,-13.977,-7.202,-13.245
5,0.946,-0.092,-0.145,-11.292,-4.883,-12.817
5,0.942,-0.101,-0.152,-10.986,-2.075,-11.597
5,0.942,-0.111,-0.140,-13.428,-1.770,-11.230
5,0.954,-0.116,-0.140,-19.714,-2.136,-11.353
5,0.963,-0.118,-0.149,-24.536,-2.563,-11.536
5,0.989,-0.106,-0.125,-25.269,-2.319,-11.475
5,1.004,-0.097,-0.096,-23.804,-0.488,-10.620
5,1.024,-0.085,-0.051,-23.010,0.549,-9.949
5,1.024,-0.073,-0.021,-21.057,2.075,-8.667
5,1.019,-0.068,-0.021,-18.066,4.395,-7.324
5,0.992,-0.077,-0.017,-16.113,5.920,-6.592
5,0.973,-0.091,-0.017,-9.460,8.179,-5.493
5,0.941,-0.110,-0.037,-6.592,8.057,-5.249
5,0.924,-0.096,-0.058,-5.554,6.226,-4.456
5,0.922,-0.091,-0.062,-5.249,5.615,-3.906
5,0.923,-0.111,-0.052,-4.517,6.226,-3.723
5,0.924,-0.125,-0.047,-2.136,7.507,-3.235
5,0.936,-0.143,-0.038,-0.854,7.385,-2.502
5,0.957,-0.149,-0.027,-0.977,7.263,-2.136
5,0.964,-0.145,-0.016,-2.258,7.812,-1.587
5,0.961,-0.138,-0.039,-2.258,8.667,-1.587
5,0.961,-0.125,-0.006,-1.343,9.277,-1.709
5,0.956,-0.122,-0.002,-5.432,8.728,-1.465
5,0.962,-0.115,-0.022,-5.981,7.996,-1.526
5,0.981,-0.107,0.012,0.305,6.836,-1.404
5,0.980,-0.105,0.017,8.118,8.240,-0.732
5,0.966,-0.102,-0.033,9.521,8.423,0.061
5,0.969,-0.100,-0.042,10.254,7.935,2.258
5,0.979,-0.108,-0.018,12.329,8.789,3.479
5,0.979,-0.115,-0.012,18.677,10.986,5.188
5,0.991,-0.116,-0.001,21.179,10.498,5.676
5,1.002,-0.115,0.002,22.217,7.507,5.859
5,1.019,-0.119,-0.004,21.423,6.409,5.554
5,1.021,-0.123,-0.010,19.592,5.310,5.188
5,1.007,-0.133,-0.020,19.653,5.310,5.249
5,0.996,-0.139,-0.011,21.912,5.859,5.615
5,0.995,-0.144,-0.001,23.499,5.615,5.798
5,0.996,-0.154,0.015,23.499,4.944,5.676
5,0.999,-0.155,0.017,21.851,2.258,4.700
5,1.011,-0.155,0.035,19.836,0.305,4.089
5,1.017,-0.152,0.031,16.602,-1.526,3.235
5,1.032,-0.117,-0.013,17.395,-1.892,3.052
5,1.049,-0.095,0.007,21.912,0.000,4.517
5,1.068,-0.086,0.007,22.400,2.625,5.615
5,1.068,-0.094,-0.045,23.804,3.418,6.348
5,1.074,-0.092,-0.044,22.888,-0.732,5.798
5,1.088,-0.103,-0.020,17.334,-2.991,5.127
5,1.095,-0.107,-0.031,14.038,-6.836,4.089
5,1.126,-0.089,-0.077,15.991,-7.874,4.333
5,1.145,-0.038,-0.081,17.578,-6.104,5.981
5,1.134,-0.030,-0.083,17.578,-0.122,5.371
5,1.055,-0.056,-0.118,16.907,1.831,4.211
5,1.000,-0.079,-0.118,15.625,1.221,2.075
5,0.898,-0.115,-0.091,15.259,-2.808,1.831
5,0.840,-0.091,-0.085,14.160,-6.042,2.136
5,0.840,-0.067,-0.089,10.437,-12.512,2.563
5,0.892,-0.023,-0.118,9.155,-15.137,2.563
5,0.962,0.011,-0.125,8.972,-17.212,2.869
5,0.986,0.021,-0.118,11.292,-14.771,3.662
5,0.993,0.036,-0.134,13.245,-13.000,3.967
5,0.986,0.046,-0.143,17.334,-9.888,5.432
5,0.980,0.073,-0.128,18.311,-7.812,6.775
5,0.967,0.072,-0.156,20.691,-2.502,9.155
5,0.959,0.067,-0.164,27.771,1.404,10.193
5,0.940,0.052,-0.148,30.334,2.808,10.620
5,0.932,0.043,-0.147,30.090,5.127,11.169
5,0.934,0.019,-0.151,31.250,5.981,11.108
5,0.946,0.012,-0.138,35.889,6.653,10.925
5,0.996,0.008,-0.099,36.987,6.653,10.986
5,1.055,-0.005,-0.081,34.241,5.310,11.047
6,0.980,0.052,-0.035,-15.625,4.883,1.221
6,0.990,0.056,-0.028,-17.456,3.662,0.061
6,1.012,0.068,-0.025,-17.883,2.930,-0.244
6,1.022,0.070,-0.027,-17.090,1.282,-1.038
6,1.033,0.073,-0.035,-16.113,0.305,-1.770
6,1.038,0.066,-0.047,-13.916,-2.319,-3.662
6,1.041,0.060,-0.042,-11.658,-6.348,-6.042
6,1.059,0.047,-0.010,-10.132,-7.751,-7.568
6,1.072,0.038,-0.007,-9.644,-9.521,-10.620
6,1.099,0.013,-0.011,-11.475,-10.925,-12.146
6,1.121,-0.009,-0.024,-15.625,-13.550,-15.015
6,1.126,-0.008,-0.022,-19.165,-15.320,-16.663
6,1.106,0.001,-0.013,-22.217,-13.794,-17.212
6,1.082,-0.002,-0.052,-23.621,-13.733,-17.822
6,1.089,-0.001,-0.066,-25.208,-15.930,-19.104
6,1.132,0.002,-0.096,-25.330,-16.724,-19.348
6,1.180,0.012,-0.107,-21.790,-16.724,-19.470
6,1.179,0.016,-0.083,-17.822,-10.498,-19.653
6,1.071,-0.004,-0.118,-17.334,-5.554,-19.958
6,1.000,-0.028,-0.147,-12.634,-0.305,-19.775
6,0.883,-0.053,-0.118,-8.789,-0.671,-19.104
6,0.821,-0.039,-0.119,-7.812,-4.639,-17.334
6,0.828,-0.033,-0.133,-14.160,-12.573,-15.442
6,0.891,-0.030,-0.136,-16.113,-15.015,-14.404
6,0.920,-0.026,-0.151,-16.907,-13.123,-11.658
6,0.946,-0.021,-0.178,-15.747,-10.376,-10.437
6,0.947,-0.033,-0.181,-9.277,-5.127,-9.094
6,0.944,-0.047,-0.173,-3.235,-1.038,-8.179
6,0.936,-0.080,-0.156,-2.258,1.038,-7.385
6,0.927,-0.095,-0.159,-5.676,3.723,-5.249
6,0.917,-0.118,-0.167,-8.911,3.418,-4.456
6,0.945,-0.117,-0.155,-14.282,0.732,-3.418
6,0.965,-0.106,-0.142,-15.625,0.122,-2.136
6,1.008,-0.085,-0.106,-15.015,1.282,-1.404
6,1.037,-0.092,-0.069,-17.090,2.808,-0.610
6,1.038,-0.099,-0.057,-19.409,4.639,-0.244
6,1.007,-0.095,-0.062,-19.348,6.226,0.366
6,0.987,-0.091,-0.054,-15.137,9.399,2.502
6,0.946,-0.091,-0.037,-12.024,10.681,3.296
6,0.930,-0.087,-0.026,-8.850,10.681,3.845
6,0.931,-0.087,-0.021,-9.705,8.789,3.479
6,0.927,-0.091,-0.034,-10.193,8.301,3.479
6,0.925,-0.094,-0.048,-8.179,9.766,4.456
6,0.926,-0.094,-0.069,-5.920,11.353,5.432
6,0.933,-0.093,-0.071,-1.282,14.221,7.629
6,0.966,-0.095,-0.052,0.977,15.076,8.545
6,0.997,-0.097,-0.024,5.188,16.235,9.644
6,1.001,-0.093,-0.022,7.080,16.846,9.583
6,0.997,-0.087,-0.034,7.080,16.479,9.094
6,0.989,-0.090,-0.037,7.202,14.648,7.812
6,0.966,-0.095,-0.041,7.996,13.306,7.324
6,0.953,-0.086,-0.053,10.803,10.010,7.080
6,0.952,-0.078,-0.055,14.648,7.324,7.080
6,0.960,-0.060,-0.046,16.724,6.348,6.958
6,0.964,-0.057,-0.037,21.301,4.944,5.920
6,0.966,-0.067,-0.034,23.560,4.395,5.371
6,0.963,-0.075,-0.041,27.771,3.601,4.700
6,0.953,-0.090,-0.078,30.457,3.662,4.700
6,0.958,-0.081,-0.072,38.147,4.089,4.822
6,0.964,-0.073,-0.045,39.307,3.540,4.517
6,0.975,-0.074,-0.054,36.987,2.747,3.723
6,0.986,-0.087,-0.053,37.476,0.854,1.587
6,0.996,-0.103,-0.041,39.429,0.305,1.343
6,1.004,-0.099,-0.051,39.124,-3.601,2.014
6,1.071,-0.074,-0.085,37.354,-7.080,2.441
6,1.161,-0.039,-0.036,35.339,-12.085,3.906
6,1.188,-0.035,-0.027,35.522,-12.146,4.700
6,1.220,-0.033,-0.077,35.156,-13.000,4.456
6,1.234,-0.019,-0.098,36.926,-14.771,5.005
6,1.255,0.013,-0.139,38.208,-14.221,5.798
6,1.260,0.019,-0.156,38.025,-11.169,6.897
6,1.240,0.037,-0.150,39.063,-8.362,6.714
6,1.130,0.041,-0.139,44.556,0.122,3.662
6,1.040,0.029,-0.130,46.387,3.662,1.160
6,0.855,0.005,-0.127,48.279,6.409,-2.686
6,0.781,0.004,-0.135,48.279,1.770,-3.723
6,0.706,0.012,-0.146,47.485,-2.502,-3.723
6,0.710,0.029,-0.131,43.579,-9.583,-3.784
6,0.760,0.085,-0.138,41.504,-10.193,-4.211
6,0.813,0.125,-0.155,35.767,-6.775,-4.761
6,0.836,0.139,-0.149,31.433,-0.427,-3.784
6,0.888,0.159,-0.169,30.579,2.136,-2.686
6,0.924,0.167,-0.178,32.288,3.723,1.343
6,1.015,0.184,-0.157,36.377,3.845,4.089
6,1.062,0.179,-0.154,41.199,3.601,8.667
6,1.133,0.149,-0.135,40.588,2.319,9.460
6,1.149,0.136,-0.108,41.687,0.000,8.484
6,1.135,0.106,-0.045,43.823,0.488,7.568
6,1.079,0.061,-0.013,46.753,2.686,4.333
6,1.041,0.037,-0.024,44.861,2.502,0.488
6,0.949,0.015,-0.063,42.969,1.465,-0.671
6,0.905,0.022,-0.069,37.537,-1.282,-1.160
6,0.854,0.058,-0.057,33.813,-2.197,-0.977
6,0.863,0.094,-0.066,25.818,-2.563,-0.122
6,0.882,0.108,-0.073,22.217,-1.404,1.038
6,0.928,0.124,-0.082,22.522,-0.122,1.770
6,0.952,0.127,-0.084,25.452,2.502,3.418
6,0.989,0.135,-0.088,27.344,3.235,3.967
6,1.003,0.146,-0.090,31.921,3.052,4.089
6,1.024,0.170,-0.086,32.715,2.625,3.540
6,1.022,0.148,-0.061,29.480,3.235,2.075
6,1.007,0.122,-0.073,28.198,5.371,0.916
6,0.978,0.090,-0.048,28.870,5.371,0.854
6,0.968,0.084,-0.033,25.757,4.089,1.282
6,0.961,0.073,-0.068,20.752,2.686,1.099
6,0.965,0.070,-0.084,13.977,0.122,0.244
6,0.975,0.071,-0.055,13.184,0.427,0.061
6,0.974,0.063,-0.056,13.489,2.380,-0.366
6,0.977,0.061,-0.062,12.512,3.540,-0.305
6,0.987,0.067,-0.037,10.986,4.272,-0.122
6,0.987,0.068,-0.037,6.165,5.798,-1.587
6,0.989,0.064,-0.072,3.174,5.615,-2.991
6,0.985,0.074,-0.067,-1.160,2.502,-5.676
6,0.980,0.077,-0.059,-1.526,1.038,-7.874
6,0.975,0.072,-0.052,-1.831,0.977,-8.606
6,0.977,0.062,-0.033,-2.808,1.160,-9.094
6,0.979,0.057,-0.021,-3.235,1.282,-8.911
6,0.985,0.049,-0.015,-3.723,0.854,-9.094
6,0.987,0.049,-0.021,-5.005,-0.488,-9.888
6,0.991,0.058,-0.039,-5.371,-1.282,-10.498
6,0.998,0.051,-0.042,-5.066,-4.150,-12.268
6,1.030,0.027,-0.024,-5.127,-6.287,-13.000
6,1.053,0.027,-0.004,-7.812,-10.010,-12.634
6,1.099,0.032,0.026,-9.094,-10.803,-12.207
6,1.110,0.023,-0.006,-10.376,-10.864,-13.062
6,1.110,0.021,-0.029,-10.376,-11.536,-14.038
6,1.128,0.018,-0.057,-10.010,-14.221,-16.113
6,1.143,0.017,-0.071,-8.362,-15.869,-17.029
6,1.167,0.032,-0.067,-7.568,-15.320,-16.663
6,1.167,0.046,-0.049,-6.714,-8.911,-16.418
6,1.124,0.046,-0.044,-6.409,-3.845,-17.456
6,1.075,0.019,-0.051,-6.409,2.197,-20.752
6,0.940,-0.025,-0.063,-5.310,2.197,-21.484
6,0.857,-0.032,-0.083,-3.662,-3.174,-20.447
6,0.851,-0.028,-0.094,-4.822,-11.658,-17.883
6,0.882,-0.008,-0.116,-4.761,-15.015,-16.174
6,0.906,0.004,-0.121,-2.197,-17.090,-13.123
6,0.937,-0.001,-0.119,-0.183,-15.808,-12.146
6,0.939,-0.003,-0.125,4.272,-12.146,-10.193
6,0.943,-0.003,-0.124,7.202,-10.132,-8.972
6,0.965,-0.031,-0.129,13.977,-4.944,-6.592
6,0.978,-0.051,-0.134,18.494,0.732,-5.188
6,0.982,-0.108,-0.144,19.714,3.113,-5.371
6,0.957,-0.140,-0.115,21.057,6.165,-5.798
6,0.946,-0.141,-0.102,18.066,6.409,-5.066
6,0.938,-0.124,-0.147,13.428,4.272,-4.578
6,1.004,-0.081,-0.096,3.357,-3.296,-3.723
6,1.038,-0.068,-0.057,-0.427,-3.906,-3.784
6,1.041,-0.054,-0.085,-1.282,-0.610,-3.967
6,1.011,-0.038,-0.070,2.075,1.099,-3.479
6,0.984,-0.030,-0.042,11.841,5.310,-1.526
6,0.929,-0.024,-0.044,15.564,5.920,-0.732
6,0.934,-0.035,-0.045,19.531,3.113,0.000
6,0.947,-0.044,-0.049,21.606,0.366,0.122
6,0.964,-0.055,-0.071,23.010,0.061,0.305
6,0.966,-0.061,-0.077,26.794,1.465,0.854
6,0.964,-0.082,-0.063,28.381,2.441,1.099
6,0.964,-0.097,-0.036,30.518,3.967,1.587
6,0.967,-0.100,-0.032,30.457,4.517,1.770
6,0.975,-0.096,-0.041,30.640,4.700,1.831
6,0.979,-0.095,-0.045,30.701,5.005,1.404
6,0.979,-0.093,-0.052,29.907,5.432,1.221
6,0.975,-0.089,-0.058,28.931,6.104,1.160
6,0.967,-0.085,-0.069,29.358,6.042,1.038
6,0.970,-0.083,-0.045,32.227,5.676,0.977
6,0.983,-0.084,-0.023,36.255,5.737,0.671
6,1.012,-0.073,0.001,37.170,5.066,0.671
6,1.023,-0.068,0.007,37.109,4.395,0.610
6,1.014,-0.070,-0.025,36.316,4.211,0.488
6,0.983,-0.082,-0.043,36.377,3.784,0.854
6,0.971,-0.087,-0.036,38.391,3.906,1.831
6,0.955,-0.085,-0.021,39.490,3.662,2.258
6,0.960,-0.075,-0.021,40.955,2.319,2.808
6,0.973,-0.072,-0.026,42.480,1.038,3.174
6,1.004,-0.072,-0.025,42.847,0.916,3.235
6,1.012,-0.073,-0.019,43.152,1.221,3.723
6,1.014,-0.076,-0.010,43.823,1.343,4.028
6,1.013,-0.073,-0.001,46.021,0.854,4.883
6,1.012,-0.068,0.004,47.180,-0.427,5.615
6,1.002,-0.066,0.012,47.729,-1.526,5.798
6,0.996,-0.071,0.018,48.706,-5.066,5.615
6,0.986,-0.080,0.017,48.950,-7.080,5.493
6,0.988,-0.076,-0.005,46.875,-10.498,6.470
6,1.033,-0.036,0.006,45.837,-11.536,7.751
6,1.089,-0.031,0.032,45.471,-9.277,9.216
6,1.103,-0.049,-0.001,46.021,-6.531,8.606
6,1.130,-0.063,-0.042,46.570,-6.714,8.667
6,1.141,-0.056,-0.021,42.358,-8.179,9.888
6,1.138,-0.044,-0.065,37.598,-8.911,10.681
6,1.174,-0.034,-0.077,33.508,-10.315,12.390
6,1.193,-0.024,-0.046,36.499,-6.409,12.878
6,1.140,-0.008,-0.068,36.499,-3.540,11.902
6,1.074,-0.007,-0.107,32.837,-3.662,8.972
6,0.931,-0.003,-0.117,32.776,-5.066,8.118
6,0.827,0.042,-0.115,36.072,-6.958,7.812
6,0.808,0.066,-0.126,36.987,-9.766,7.385
6,0.827,0.098,-0.123,36.926,-10.925,6.775
6,0.848,0.109,-0.121,36.438,-8.606,5.432
6,0.886,0.109,-0.145,35.339,-5.737,5.066
6,0.903,0.101,-0.149,35.950,0.000,5.432
7,1.124,0.047,-0.030,-29.785,-7.751,-9.644
7,1.150,0.074,-0.010,-29.419,-6.348,-9.460
7,1.111,0.057,-0.041,-27.893,-1.709,-9.827
7,1.074,0.037,-0.068,-22.766,1.709,-10.315
7,0.988,0.001,-0.092,-19.409,1.648,-10.559
7,0.953,-0.007,-0.076,-15.320,0.854,-10.498
7,0.899,-0.015,-0.124,-15.747,0.122,-10.437
7,0.886,-0.013,-0.154,-21.362,-4.944,-9.521
7,0.894,-0.013,-0.151,-24.780,-8.484,-7.751
7,0.915,-0.011,-0.152,-25.146,-8.301,-7.141
7,0.928,-0.012,-0.148,-23.987,-5.859,-6.653
7,0.950,-0.040,-0.142,-23.132,-4.150,-6.714
7,0.951,-0.083,-0.159,-21.606,-1.526,-7.202
7,0.946,-0.094,-0.167,-20.874,0.732,-6.470
7,0.930,-0.098,-0.162,-20.447,2.625,-5.798
7,0.926,-0.096,-0.143,-18.188,7.263,-5.127
7,0.929,-0.103,-0.117,-18.494,9.216,-4.883
7,0.952,-0.120,-0.138,-23.071,9.277,-4.639
7,0.972,-0.123,-0.145,-26.489,5.127,-4.700
7,1.020,-0.106,-0.133,-26.611,3.174,-4.700
7,1.045,-0.086,-0.110,-26.672,1.465,-3.906
7,1.071,-0.049,-0.081,-27.222,2.502,-3.174
7,1.042,-0.031,-0.102,-28.015,6.470,-1.282
7,1.015,-0.028,-0.118,-26.672,9.644,1.404
7,0.966,-0.035,-0.150,-24.048,10.376,2.747
7,0.952,-0.038,-0.140,-14.893,9.521,4.822
7,0.957,-0.043,-0.049,-11.902,8.179,5.615
7,0.967,-0.058,-0.064,-12.817,3.967,6.104
7,0.977,-0.068,-0.079,-10.864,0.854,5.798
7,0.988,-0.083,-0.056,-8.667,0.671,5.737
7,0.977,-0.088,-0.061,-4.883,0.305,5.554
7,0.950,-0.080,-0.070,-3.601,-0.610,5.554
7,0.938,-0.050,-0.078,-1.343,-1.770,6.104
7,0.936,-0.038,-0.091,0.488,-0.671,6.104
7,0.930,-0.028,-0.103,2.563,0.488,5.554
7,0.925,-0.042,-0.096,7.751,2.197,3.540
7,0.912,-0.079,-0.060,9.705,2.136,2.563
7,0.924,-0.102,-0.026,11.719,0.244,1.587
7,0.941,-0.106,-0.015,12.268,-3.113,1.282
7,0.981,-0.100,-0.002,12.573,-4.639,1.038
7,0.995,-0.091,-0.010,13.489,-7.019,0.305
7,1.008,-0.077,-0.035,13.428,-7.690,-0.061
7,0.996,-0.075,-0.010,11.414,-7.202,-0.122
7,0.986,-0.077,0.015,12.024,-5.066,1.221
7,0.970,-0.074,0.015,14.099,-4.272,2.136
7,0.976,-0.067,0.013,17.700,-3.662,4.272
7,1.010,-0.054,-0.003,18.738,-3.174,5.310
7,1.031,-0.050,-0.021,17.883,-2.197,6.470
7,1.064,-0.064,-0.012,17.090,-1.282,6.592
7,1.070,-0.080,0.005,18.433,1.526,6.409
7,1.069,-0.101,0.026,19.714,0.793,6.836
7,1.085,-0.083,0.001,19.287,-1.099,7.141
7,1.105,-0.061,-0.022,17.090,-5.920,7.629
7,1.153,-0.019,-0.024,17.029,-6.226,7.629
7,1.154,-0.016,-0.043,17.456,-2.930,6.897
7,1.130,-0.038,-0.093,17.456,-3.174,6.348
7,1.099,-0.042,-0.097,18.555,-3.723,6.775
7,1.086,-0.028,-0.115,20.081,-4.456,8.362
7,1.089,-0.003,-0.132,20.203,-6.287,8.606
7,1.106,0.001,-0.109,20.630,-9.949,7.507
7,1.116,0.004,-0.092,20.447,-10.193,5.127
7,1.045,0.018,-0.132,20.142,-9.338,5.310
7,0.995,0.041,-0.147,19.226,-7.751,8.118
7,0.921,0.072,-0.152,18.982,-8.179,8.850
7,0.902,0.075,-0.124,19.287,-10.193,7.996
7,0.859,0.069,-0.151,18.066,-10.681,7.202
7,0.842,0.071,-0.185,15.625,-11.963,6.653
7,0.844,0.107,-0.143,16.724,-11.353,7.141
7,0.874,0.125,-0.090,21.484,-5.676,8.240
7,0.895,0.118,-0.105,22.034,-2.747,8.484
7,0.939,0.106,-0.120,19.836,-1.892,8.850
7,0.948,0.099,-0.122,14.893,3.174,9.399
7,0.944,0.093,-0.125,13.428,5.371,9.644
7,0.952,0.093,-0.092,14.954,5.127,10.132
7,0.996,0.079,-0.011,16.296,3.601,10.071
7,1.010,0.074,-0.002,16.602,2.747,9.216
7,1.014,0.079,-0.062,16.846,3.784,8.606
7,0.990,0.086,-0.088,15.015,6.409,7.568
7,0.973,0.088,-0.065,9.094,7.874,6.531
7,0.949,0.075,-0.018,6.470,7.935,5.920
7,0.944,0.074,-0.028,5.981,6.897,5.798
7,0.942,0.096,-0.060,7.568,5.920,6.409
7,0.948,0.117,-0.057,9.521,6.958,7.874
7,0.967,0.147,-0.069,7.751,8.362,8.057
7,0.992,0.132,-0.062,1.221,10.132,6.470
7,0.990,0.122,-0.056,0.000,11.292,5.371
7,0.963,0.117,-0.062,0.488,13.489,4.761
7,0.953,0.118,-0.067,1.038,12.512,4.272
7,0.952,0.116,-0.061,1.282,11.719,3.357
7,0.956,0.111,-0.045,-0.183,11.230,0.977
7,0.955,0.098,-0.019,-2.075,11.414,0.000
7,0.952,0.093,-0.018,-6.287,11.292,-1.526
7,0.944,0.093,-0.030,-8.362,10.498,-2.014
7,0.951,0.104,-0.043,-12.024,8.728,-2.563
7,0.961,0.104,-0.041,-13.245,8.118,-2.808
7,0.973,0.109,-0.035,-15.015,6.836,-3.967
7,0.974,0.118,-0.037,-16.357,5.676,-4.883
7,0.987,0.122,-0.047,-16.479,5.493,-5.249
7,1.000,0.115,-0.045,-15.442,5.127,-6.226
7,1.014,0.104,-0.034,-14.526,5.310,-6.470
7,1.011,0.103,-0.039,-11.230,6.470,-7.202
7,1.000,0.100,-0.070,-10.132,6.409,-7.996
7,1.000,0.094,-0.068,-13.062,5.676,-10.010
7,0.990,0.075,-0.049,-16.541,5.798,-11.108
7,0.972,0.064,-0.052,-20.386,5.127,-13.000
7,0.977,0.068,-0.018,-19.958,3.662,-12.024
7,0.997,0.074,0.010,-21.606,3.235,-11.414
7,1.018,0.071,-0.004,-26.367,2.808,-11.536
7,1.068,0.059,-0.048,-27.771,1.831,-12.268
7,1.093,0.056,-0.067,-29.053,-2.197,-14.648
7,1.097,0.063,-0.071,-26.978,-6.897,-16.541
7,1.114,0.082,-0.042,-26.978,-8.728,-16.968
7,1.126,0.071,-0.048,-27.161,-10.193,-18.433
7,1.166,0.012,-0.134,-25.391,-10.803,-19.653
7,1.217,-0.019,-0.157,-17.883,-12.634,-21.851
7,1.229,-0.020,-0.131,-12.268,-9.155,-22.461
7,1.176,-0.029,-0.134,-13.672,-3.540,-22.217
7,1.115,-0.049,-0.160,-21.973,9.033,-20.813
7,0.943,-0.100,-0.187,-19.958,12.634,-20.081
7,0.864,-0.109,-0.178,-14.282,10.620,-18.433
7,0.787,-0.107,-0.179,-14.587,6.470,-17.639
7,0.815,-0.085,-0.234,-21.362,-4.028,-15.320
7,0.854,-0.079,-0.241,-22.766,-8.362,-13.184
7,0.911,-0.065,-0.245,-19.653,-5.920,-12.329
7,0.944,-0.076,-0.224,-16.541,-1.160,-11.047
7,0.959,-0.092,-0.195,-17.090,-0.549,-10.193
7,1.000,-0.120,-0.137,-16.296,-0.977,-9.705
7,1.017,-0.127,-0.147,-11.902,-2.502,-7.996
7,1.040,-0.127,-0.186,-11.536,-5.371,-7.202
7,1.052,-0.120,-0.149,-13.550,-6.714,-7.629
7,1.041,-0.122,-0.139,-15.808,-6.104,-8.240
7,0.973,-0.110,-0.167,-15.442,-4.822,-7.446
7,0.904,-0.083,-0.157,-14.526,-3.296,-4.211
7,0.879,-0.074,-0.135,-14.221,-0.793,-1.587
7,0.840,-0.067,-0.127,-12.878,0.793,-1.160
7,0.837,-0.077,-0.129,-10.071,2.502,-1.221
7,0.878,-0.111,-0.118,-8.362,2.441,-1.221
7,0.930,-0.135,-0.092,-2.808,2.380,-0.427
7,0.945,-0.136,-0.086,2.380,3.723,1.038
7,0.964,-0.131,-0.095,4.211,4.150,1.343
7,0.969,-0.133,-0.098,4.578,3.723,0.916
7,0.968,-0.151,-0.090,3.967,3.296,0.488
7,0.957,-0.180,-0.122,2.502,2.380,-0.488
7,0.953,-0.177,-0.119,2.625,1.099,0.183
7,0.944,-0.155,-0.057,2.686,1.221,1.160
7,0.939,-0.144,-0.054,0.366,1.099,2.808
7,0.960,-0.132,-0.053,0.916,0.671,3.479
7,0.980,-0.121,-0.030,4.639,2.441,5.005
7,0.976,-0.123,-0.050,5.432,3.540,6.226
7,0.971,-0.115,-0.074,4.761,2.441,6.775
7,0.973,-0.102,-0.063,5.920,1.404,8.301
7,0.971,-0.095,-0.053,7.080,2.197,8.850
7,0.970,-0.102,-0.055,7.568,3.174,8.911
7,0.976,-0.112,-0.053,8.606,2.869,8.728
7,0.986,-0.109,-0.051,11.414,3.113,9.644
7,1.006,-0.094,-0.049,12.146,4.272,10.498
7,1.008,-0.090,-0.055,14.404,8.423,11.902
7,1.003,-0.095,-0.061,15.747,10.376,11.963
7,0.986,-0.102,-0.050,19.897,11.536,11.047
7,0.988,-0.101,-0.054,21.057,7.080,10.620
7,1.018,-0.075,-0.069,19.409,2.930,11.230
7,1.051,-0.056,-0.052,17.029,-0.916,13.855
7,1.116,-0.043,-0.066,16.785,-0.061,14.709
7,1.135,-0.046,-0.082,17.212,0.732,15.503
7,1.142,-0.050,-0.098,18.738,0.305,15.869
7,1.129,-0.038,-0.073,23.010,-0.427,16.907
7,1.120,-0.038,-0.073,22.217,-1.587,17.578
7,1.113,-0.045,-0.109,20.020,-3.235,17.639
7,1.110,-0.041,-0.132,16.602,-5.249,18.250
7,1.082,-0.013,-0.170,16.418,-4.517,18.738
7,1.059,0.005,-0.183,16.907,-1.404,18.677
7,1.005,0.028,-0.195,16.357,-0.061,17.639
7,0.925,0.034,-0.188,14.038,2.319,14.160
7,0.882,0.035,-0.200,12.146,2.625,11.169
7,0.833,0.060,-0.226,10.803,1.160,10.376
7,0.843,0.090,-0.223,8.911,-1.648,10.315
7,0.903,0.136,-0.229,7.446,-2.014,10.254
7,0.938,0.151,-0.229,3.967,0.488,10.559
7,0.999,0.152,-0.216,3.845,3.662,10.742
7,1.007,0.138,-0.208,8.362,10.498,10.315
7,0.985,0.113,-0.200,11.536,12.085,10.132
7,0.970,0.100,-0.211,16.785,9.583,9.338
7,0.967,0.080,-0.197,18.860,5.676,9.094
7,0.994,0.096,-0.137,17.639,-0.610,8.850
7,1.002,0.090,-0.141,11.902,-2.075,5.920
7,0.985,0.070,-0.151,11.047,-0.977,4.333
7,0.960,0.069,-0.147,11.414,1.648,1.953
7,0.906,0.077,-0.158,10.864,0.977,1.038
7,0.899,0.083,-0.156,8.667,-3.235,0.061
7,0.926,0.105,-0.126,7.263,-5.005,0.244
7,0.967,0.132,-0.111,4.883,-5.310,2.075
7,0.985,0.138,-0.120,2.930,-3.296,2.991
7,1.001,0.135,-0.125,3.174,-2.686,2.625
7,0.993,0.129,-0.114,6.775,-1.404,0.793
7,0.955,0.100,-0.099,8.911,-0.793,-0.122
7,0.934,0.089,-0.092,9.827,-1.221,-1.099
7,0.934,0.090,-0.086,7.996,-3.235,-1.770
7,0.948,0.087,-0.081,6.592,-3.784,-1.953
7,0.953,0.086,-0.087,2.808,-3.784,-1.892
7,0.957,0.088,-0.100,0.122,-4.028,-1.953
8,0.732,-0.075,-0.141,-15.625,-6.531,-9.094
8,0.776,-0.030,-0.135,-19.165,-9.521,-6.775
8,0.873,-0.028,-0.137,-18.738,-8.789,-3.784
8,0.923,-0.046,-0.133,-8.362,-3.418,-3.296
8,0.999,-0.080,-0.122,-2.930,-1.343,-3.357
8,1.022,-0.089,-0.130,2.502,0.916,-3.357
8,1.042,-0.103,-0.151,3.113,1.831,-3.601
8,1.021,-0.127,-0.152,1.343,4.578,-4.395
8,1.006,-0.134,-0.144,-5.127,5.920,-4.333
8,0.991,-0.116,-0.093,-8.362,5.432,-3.784
8,0.990,-0.103,-0.072,-13.123,3.967,-2.930
8,1.001,-0.085,-0.058,-14.709,3.540,-2.869
8,0.997,-0.074,-0.097,-15.930,3.540,-3.113
8,0.986,-0.065,-0.089,-15.442,3.723,-2.380
8,0.957,-0.049,-0.080,-14.526,3.906,-1.831
8,0.949,-0.047,-0.080,-11.292,3.784,-1.526
8,0.948,-0.047,-0.060,-10.071,3.174,-1.648
8,0.951,-0.049,-0.050,-8.545,2.991,-2.258
8,0.955,-0.072,-0.037,-7.507,3.784,-2.808
8,0.956,-0.079,-0.033,-4.578,4.700,-3.174
8,0.952,-0.083,-0.055,-2.869,4.944,-2.869
8,0.953,-0.083,-0.062,1.770,5.554,-1.953
8,0.951,-0.089,-0.057,6.714,7.202,-1.648
8,0.942,-0.116,-0.049,8.789,7.996,-1.892
8,0.940,-0.127,-0.041,11.353,8.118,-2.319
8,0.946,-0.124,-0.014,12.024,7.690,-2.319
8,0.950,-0.116,-0.018,13.062,7.263,-2.258
8,0.951,-0.096,-0.066,13.184,7.080,-2.014
8,0.957,-0.078,-0.080,13.123,7.507,-0.610
8,0.962,-0.078,-0.064,14.221,9.460,0.793
8,0.971,-0.095,-0.028,14.893,10.010,1.099
8,0.974,-0.103,-0.034,15.625,8.484,1.465
8,0.986,-0.102,-0.049,16.724,6.714,1.770
8,1.002,-0.095,-0.019,15.869,3.967,3.113
8,1.010,-0.091,-0.038,13.245,3.296,3.601
8,1.018,-0.092,-0.060,13.428,2.869,4.211
8,1.018,-0.088,-0.043,17.761,5.005,5.005
8,0.996,-0.079,-0.065,18.555,5.554,5.310
8,0.986,-0.075,-0.080,18.921,3.479,5.798
8,0.985,-0.066,-0.077,18.616,2.380,6.042
8,0.989,-0.067,-0.065,17.639,1.831,6.470
8,1.002,-0.067,-0.068,17.090,-0.732,7.202
8,1.066,-0.057,-0.057,17.944,-3.418,7.935
8,1.112,-0.047,-0.041,21.179,-6.409,10.437
8,1.200,-0.039,-0.027,23.193,-5.920,11.230
8,1.222,-0.048,-0.044,25.024,-4.700,10.742
8,1.201,-0.062,-0.061,24.780,-4.517,10.193
8,1.168,-0.062,-0.060,24.536,-3.723,9.521
8,1.102,-0.053,-0.087,24.780,-3.784,9.338
8,1.080,-0.016,-0.129,23.926,-6.836,9.216
8,1.084,0.003,-0.121,22.522,-6.287,9.216
8,1.051,0.009,-0.142,21.851,-3.479,8.057
8,1.006,-0.004,-0.156,19.836,-0.122,4.150
8,0.884,-0.025,-0.194,20.386,-0.549,3.052
8,0.816,0.003,-0.183,22.766,-4.395,3.479
8,0.820,0.027,-0.165,22.522,-7.935,4.272
8,0.874,0.082,-0.160,20.996,-8.301,4.456
8,0.906,0.099,-0.169,17.639,-4.028,4.761
8,0.941,0.093,-0.203,16.907,-0.122,4.944
8,0.930,0.089,-0.207,19.470,6.714,6.531
8,0.922,0.094,-0.196,25.513,9.521,8.972
8,0.918,0.093,-0.184,27.649,8.545,9.827
8,0.928,0.089,-0.178,25.330,3.540,10.986
8,0.966,0.083,-0.156,22.888,1.038,11.047
8,0.985,0.077,-0.150,19.836,-2.075,10.193
8,1.010,0.078,-0.147,18.982,-2.869,9.827
8,1.020,0.086,-0.128,17.761,-2.869,8.850
8,1.037,0.080,-0.079,16.357,-0.183,6.042
8,1.028,0.055,-0.069,15.503,1.770,4.639
8,1.010,0.047,-0.080,13.489,5.615,3.052
8,0.960,0.045,-0.141,12.268,6.470,2.502
8,0.943,0.055,-0.152,8.301,5.310,1.709
8,0.918,0.081,-0.134,4.395,4.578,1.526
8,0.912,0.091,-0.141,-4.456,3.113,1.343
8,0.937,0.107,-0.128,-5.859,3.052,1.587
8,0.964,0.117,-0.092,-2.930,6.104,2.075
8,0.962,0.112,-0.111,-0.061,8.789,2.136
8,0.959,0.109,-0.148,0.977,8.667,2.319
8,0.963,0.114,-0.140,1.343,8.240,3.601
8,0.963,0.118,-0.119,0.610,8.545,4.211
8,0.958,0.112,-0.119,-0.854,8.667,4.272
8,0.950,0.097,-0.111,-0.977,7.751,3.784
8,0.950,0.082,-0.083,-0.366,5.737,2.869
8,0.951,0.074,-0.070,0.488,5.432,2.625
8,0.958,0.063,-0.051,-0.366,5.432,2.686
8,0.969,0.059,-0.052,-6.226,5.554,3.174
8,0.977,0.060,-0.112,-9.827,4.822,3.296
8,0.974,0.072,-0.120,-15.991,1.526,3.296
8,0.974,0.073,-0.088,-20.691,0.916,3.235
8,0.981,0.074,-0.049,-21.179,1.587,3.113
8,0.985,0.081,-0.071,-18.250,3.601,2.258
8,1.002,0.103,-0.093,-17.822,4.150,1.648
8,1.006,0.105,-0.087,-16.907,3.723,-0.366
8,0.996,0.098,-0.103,-15.625,2.502,-1.709
8,0.997,0.099,-0.100,-17.517,0.610,-3.601
8,1.010,0.098,-0.089,-19.897,0.488,-4.456
8,1.016,0.091,-0.064,-21.362,1.831,-6.165
8,1.014,0.090,-0.053,-20.020,3.662,-8.362
8,1.013,0.075,-0.042,-20.935,3.235,-9.766
8,1.018,0.055,-0.032,-25.757,0.244,-13.367
8,1.027,0.013,-0.050,-28.259,-1.831,-15.137
8,1.033,0.008,-0.066,-31.250,-6.653,-16.174
8,1.057,0.049,-0.085,-30.762,-8.118,-15.503
8,1.087,0.088,-0.093,-30.884,-8.545,-15.015
8,1.094,0.081,-0.108,-34.058,-9.949,-16.724
8,1.125,0.027,-0.156,-34.302,-12.939,-17.334
8,1.156,-0.001,-0.172,-27.466,-20.996,-17.151
8,1.224,-0.012,-0.139,-22.278,-23.071,-16.296
8,1.237,0.023,-0.112,-16.968,-16.663,-13.367
8,1.201,0.023,-0.129,-17.273,-3.235,-12.573
8,1.039,-0.024,-0.197,-17.090,1.038,-13.367
8,0.857,-0.068,-0.164,-15.320,-0.122,-13.672
8,0.786,-0.069,-0.152,-18.250,-7.874,-10.681
8,0.723,-0.063,-0.234,-23.010,-11.963,-8.423
8,0.744,-0.045,-0.245,-26.978,-15.564,-3.784
8,0.829,-0.012,-0.185,-22.827,-13.367,-2.258
8,0.869,-0.020,-0.184,-12.268,-6.470,-0.732
8,0.953,-0.041,-0.176,-7.874,-1.892,-0.671
8,1.014,-0.063,-0.176,-7.324,0.427,-1.099
8,1.023,-0.080,-0.194,-8.240,2.991,-2.075
8,1.025,-0.104,-0.203,-8.545,1.831,-2.502
8,1.022,-0.107,-0.124,-10.376,-2.625,-2.258
8,1.018,-0.102,-0.084,-12.634,-3.235,-1.221
8,0.997,-0.078,-0.075,-12.939,-2.502,-0.610
8,0.981,-0.058,-0.094,-12.695,-1.709,1.526
8,0.955,-0.018,-0.116,-11.841,-1.099,2.686
8,0.946,-0.010,-0.107,-7.996,1.282,3.906
8,0.928,-0.022,-0.073,-5.066,2.380,3.906
8,0.926,-0.040,-0.066,0.366,2.380,3.296
8,0.940,-0.049,-0.058,5.127,-0.244,2.625
8,0.970,-0.059,-0.062,7.874,-0.488,2.258
8,0.968,-0.060,-0.075,13.123,2.197,1.404
8,0.941,-0.056,-0.104,15.625,3.845,0.183
8,0.913,-0.071,-0.089,15.625,3.479,-0.427
8,0.907,-0.077,-0.070,18.188,3.601,-0.549
8,0.925,-0.083,-0.029,21.118,4.395,-0.122
8,0.959,-0.082,-0.031,24.414,5.249,1.526
8,0.974,-0.077,-0.040,25.818,3.418,2.808
8,0.984,-0.068,-0.073,26.794,2.686,2.808
8,0.987,-0.063,-0.084,26.428,2.502,2.197
8,0.997,-0.061,-0.026,26.123,3.662,2.258
8,0.983,-0.060,-0.034,29.419,7.019,3.113
8,0.979,-0.056,-0.059,30.701,6.775,4.700
8,0.991,-0.046,-0.071,29.785,6.470,5.371
8,1.001,-0.059,-0.073,29.419,6.165,5.310
8,1.004,-0.102,-0.088,30.396,4.517,4.822
8,1.002,-0.105,-0.086,32.227,-0.977,5.127
8,0.994,-0.070,-0.074,32.227,-2.808,5.676
8,0.980,-0.046,-0.071,29.846,-4.700,6.531
8,0.975,-0.046,-0.073,26.978,-6.104,6.897
8,0.978,-0.065,-0.090,27.100,-6.653,6.592
8,0.996,-0.077,-0.065,26.917,-9.460,5.798
8,1.042,-0.066,-0.043,23.621,-12.268,5.920
8,1.128,-0.019,-0.019,15.198,-15.869,7.507
8,1.181,-0.018,0.003,17.456,-9.949,8.911
8,1.229,-0.066,-0.046,22.339,-5.859,8.240
8,1.220,-0.081,-0.096,27.466,-6.165,6.775
8,1.186,-0.045,-0.104,24.475,-8.789,7.080
8,1.164,-0.013,-0.098,16.418,-10.986,9.033
8,1.121,0.039,-0.102,14.038,-10.071,10.132
8,1.091,0.027,-0.071,16.846,-5.920,9.827
8,1.057,0.003,-0.081,27.161,-4.761,6.775
8,0.955,-0.001,-0.118,28.870,-7.263,6.104
8,0.901,0.020,-0.136,25.452,-12.878,5.615
8,0.827,0.078,-0.150,21.729,-15.198,5.127
8,0.815,0.115,-0.129,15.015,-16.113,3.845
8,0.821,0.173,-0.104,13.977,-12.756,3.418
8,0.859,0.195,-0.144,16.174,-2.319,4.578
8,0.882,0.197,-0.158,17.273,6.531,7.935
8,0.921,0.172,-0.169,19.470,11.047,9.766
8,0.931,0.146,-0.183,27.100,14.587,12.634
8,0.954,0.100,-0.153,29.419,12.451,13.489
8,0.968,0.089,-0.132,28.442,5.615,14.282
8,1.020,0.108,-0.109,25.879,2.197,14.526
8,1.047,0.126,-0.088,21.667,-1.770,13.611
8,1.075,0.106,-0.055,20.935,-2.075,12.207
8,1.037,0.066,-0.064,17.456,-1.282,9.155
8,1.000,0.059,-0.074,14.771,-0.244,7.568
8,0.923,0.076,-0.066,7.690,1.648,5.188
8,0.887,0.100,-0.060,5.005,2.319,4.944
8,0.858,0.142,-0.063,3.479,5.371,6.409
8,0.874,0.144,-0.064,2.441,9.766,8.850
8,0.927,0.141,-0.072,1.953,11.658,9.888
8,0.967,0.139,-0.086,0.061,14.038,10.620
8,0.974,0.147,-0.083,-3.113,15.503,9.827
8,0.975,0.147,-0.090,-4.395,15.808,8.850
8,0.973,0.136,-0.089,-8.301,13.428,7.080
8,0.962,0.134,-0.073,-10.010,11.292,6.897
8,0.955,0.145,-0.071,-11.597,7.690,7.141
8,0.950,0.161,-0.077,-12.329,6.470,6.897
8,0.951,0.160,-0.077,-16.174,4.761,5.188
8,0.954,0.153,-0.069,-19.348,4.578,4.333
8,0.951,0.139,-0.119,-24.841,5.310,2.808
8,0.958,0.141,-0.099,-26.123,5.737,1.953
8,0.969,0.152,-0.065,-25.757,6.409,1.343
8,0.970,0.153,-0.100,-31.006,6.470,-0.610
8,0.986,0.157,-0.111,-33.936,5.859,-1.709
8,0.984,0.150,-0.076,-33.691,6.714,-3.723
8,0.975,0.142,-0.089,-31.494,5.310,-5.615
8,0.986,0.131,-0.090,-31.738,2.441,-6.348
9,1.037,-0.106,-0.168,-4.822,3.601,-6.470
9,1.068,-0.092,-0.090,-6.287,0.977,-6.592
9,1.051,-0.083,-0.049,-8.179,1.404,-6.104
9,1.032,-0.081,-0.051,-7.446,4.333,-5.432
9,0.988,-0.062,-0.052,-7.141,5.493,-4.761
9,0.945,-0.044,-0.067,-5.066,8.118,-3.296
9,0.922,-0.045,-0.104,-0.671,9.644,-3.845
9,0.922,-0.052,-0.068,0.610,9.094,-4.272
9,0.926,-0.076,-0.073,-1.343,7.690,-5.066
9,0.938,-0.086,-0.089,0.793,6.775,-4.578
9,0.970,-0.103,-0.052,4.578,7.996,-3.601
9,0.971,-0.109,-0.051,12.146,11.658,-1.282
9,0.954,-0.108,-0.099,14.404,11.597,-0.366
9,0.947,-0.107,-0.098,14.954,8.728,0.610
9,0.945,-0.115,-0.082,14.465,7.507,0.427
9,0.936,-0.130,-0.064,15.137,7.751,0.122
9,0.932,-0.131,-0.073,16.724,7.690,-0.183
9,0.944,-0.109,-0.092,17.212,7.080,-0.183
9,0.956,-0.093,-0.093,18.555,7.019,0.122
9,0.976,-0.074,-0.087,19.165,7.751,0.183
9,0.984,-0.075,-0.083,20.020,8.545,-0.061
9,1.000,-0.097,-0.068,22.156,7.080,-0.427
9,0.998,-0.099,-0.069,22.888,5.615,0.122
9,0.997,-0.085,-0.063,22.522,2.930,2.380
9,0.998,-0.068,-0.070,23.804,3.479,3.296
9,0.997,-0.068,-0.084,28.442,5.859,4.150
9,0.994,-0.080,-0.082,30.640,6.348,4.028
9,0.987,-0.111,-0.059,30.884,5.371,3.845
9,0.988,-0.120,-0.041,28.870,2.563,5.005
9,1.005,-0.120,-0.031,27.344,0.977,5.981
9,1.023,-0.112,-0.040,26.001,-2.197,7.080
9,1.051,-0.078,-0.077,28.381,-5.249,6.714
9,1.052,-0.076,-0.096,29.175,-6.592,6.104
9,1.040,-0.083,-0.099,26.978,-10.376,5.127
9,1.036,-0.068,-0.041,26.917,-12.390,5.493
9,1.048,-0.055,-0.006,27.893,-12.756,7.324
9,1.081,-0.045,-0.024,27.893,-12.390,8.179
9,1.102,-0.042,-0.053,28.503,-13.489,10.193
9,1.136,-0.040,-0.071,27.893,-14.832,11.230
9,1.153,-0.029,-0.088,24.963,-17.090,12.268
9,1.155,-0.010,-0.107,23.376,-17.334,13.794
9,1.151,0.031,-0.110,23.132,-16.174,14.587
9,1.139,0.049,-0.094,24.475,-9.949,14.404
9,1.065,0.067,-0.090,25.940,-6.470,13.062
9,1.006,0.055,-0.101,25.879,-4.089,9.033
9,0.872,0.009,-0.170,24.902,-6.042,7.324
9,0.795,0.037,-0.132,24.231,-12.756,6.287
9,0.779,0.076,-0.116,21.301,-13.123,6.592
9,0.782,0.148,-0.158,19.714,-11.047,6.836
9,0.809,0.178,-0.179,23.193,-1.160,8.423
9,0.875,0.186,-0.171,27.771,5.066,9.033
9,0.903,0.162,-0.159,33.936,13.489,9.949
9,0.959,0.127,-0.135,35.095,14.526,11.169
9,0.993,0.125,-0.122,39.856,14.160,14.343
9,1.063,0.121,-0.123,42.603,13.855,15.076
9,1.105,0.124,-0.135,43.823,11.597,13.367
9,1.115,0.125,-0.107,39.124,6.714,7.629
9,1.091,0.094,-0.054,36.438,5.859,4.517
9,1.050,0.071,-0.052,31.982,7.385,-0.183
9,0.943,0.040,-0.081,30.090,7.812,-1.648
9,0.866,0.057,-0.099,24.658,5.676,-2.686
9,0.857,0.071,-0.089,16.724,2.380,-2.197
9,0.879,0.095,-0.070,12.634,1.221,-1.831
9,0.902,0.106,-0.062,5.127,-0.061,-0.305
9,0.955,0.128,-0.065,2.747,0.427,0.793
9,0.973,0.142,-0.073,2.869,2.991,2.747
9,0.989,0.170,-0.060,5.859,4.944,3.357
9,0.985,0.188,-0.072,11.841,7.751,2.686
9,0.982,0.191,-0.081,11.230,7.996,0.305
9,0.972,0.171,-0.070,8.972,8.423,-0.854
9,0.964,0.153,-0.063,5.493,10.681,-2.502
9,0.949,0.120,-0.079,6.042,11.230,-2.319
9,0.947,0.132,-0.082,7.263,11.841,-1.709
9,0.951,0.135,-0.082,7.751,13.000,-1.526
9,0.956,0.122,-0.080,6.165,12.085,-2.197
9,0.953,0.112,-0.083,1.343,8.423,-3.967
9,0.949,0.101,-0.077,-0.488,6.897,-4.822
9,0.952,0.101,-0.076,-1.770,5.432,-6.470
9,0.965,0.110,-0.104,-1.953,4.822,-7.751
9,0.987,0.109,-0.108,-4.944,2.502,-10.742
9,0.992,0.097,-0.098,-8.850,0.793,-14.038
9,1.002,0.071,-0.064,-9.216,0.244,-14.893
9,1.010,0.063,-0.054,-7.629,-0.305,-15.015
9,1.020,0.067,-0.066,-7.385,-0.732,-14.832
9,1.031,0.085,-0.071,-9.583,-2.686,-14.404
9,1.073,0.099,-0.070,-11.841,-4.333,-14.648
9,1.106,0.088,-0.066,-15.320,-7.874,-16.235
9,1.116,0.087,-0.033,-10.803,-8.301,-16.846
9,1.102,0.065,-0.037,-10.193,-8.911,-17.029
9,1.090,0.057,-0.064,-14.709,-12.573,-16.907
9,1.125,0.054,-0.052,-9.338,-9.888,-16.541
9,1.172,0.046,-0.101,-4.822,-8.423,-16.296
9,1.193,0.047,-0.120,-1.892,-5.615,-14.160
9,1.202,0.012,-0.077,-0.427,-2.197,-13.367
9,1.087,-0.056,-0.102,3.967,4.150,-13.062
9,1.009,-0.062,-0.129,-2.930,1.099,-12.146
9,0.892,-0.046,-0.143,-5.005,-2.258,-11.719
9,0.853,-0.046,-0.140,-10.864,-8.179,-10.132
9,0.792,-0.039,-0.133,-17.883,-11.047,-7.385
9,0.792,-0.020,-0.136,-18.677,-11.414,-6.287
9,0.817,-0.010,-0.131,-19.470,-9.155,-4.761
9,0.879,-0.020,-0.173,-20.569,-6.897,-4.517
9,0.911,-0.039,-0.198,-19.958,-3.418,-5.920
9,0.966,-0.098,-0.202,-16.052,0.488,-8.301
9,0.977,-0.160,-0.193,-13.062,2.563,-8.850
9,0.972,-0.170,-0.200,-5.615,4.822,-7.751
9,0.981,-0.141,-0.173,-4.700,4.089,-7.080
9,1.009,-0.110,-0.133,-6.348,0.854,-7.202
9,1.027,-0.094,-0.123,-8.301,-0.977,-7.996
9,1.039,-0.064,-0.126,-10.254,-0.732,-8.179
9,1.025,-0.054,-0.131,-12.024,2.563,-7.446
9,0.971,-0.041,-0.117,-10.437,5.188,-6.653
9,0.916,-0.052,-0.074,-2.991,9.460,-5.005
9,0.900,-0.059,-0.060,5.005,8.606,-3.540
9,0.913,-0.059,-0.062,6.958,6.104,-2.930
9,0.967,-0.064,-0.079,7.996,2.075,-2.625
9,0.990,-0.073,-0.081,9.888,1.221,-3.296
9,0.995,-0.082,-0.069,11.841,2.319,-3.418
9,0.981,-0.086,-0.073,17.090,5.920,-3.174
9,0.950,-0.105,-0.104,19.714,6.836,-3.296
9,0.942,-0.114,-0.111,21.667,5.615,-4.150
9,0.944,-0.107,-0.101,21.484,3.723,-5.005
9,0.949,-0.091,-0.083,22.339,3.357,-5.310
9,0.953,-0.083,-0.065,25.208,4.456,-5.005
9,0.964,-0.084,-0.051,26.978,5.493,-4.395
9,0.965,-0.089,-0.081,32.349,6.653,-2.808
9,0.981,-0.085,-0.080,35.095,6.348,-1.953
9,0.988,-0.085,-0.040,35.889,5.127,-1.221
9,0.982,-0.086,-0.063,33.691,3.113,-1.160
9,0.987,-0.086,-0.088,35.095,2.502,-0.854
9,0.992,-0.087,-0.068,40.894,3.662,0.061
9,0.990,-0.100,-0.062,43.396,4.089,0.427
9,1.007,-0.106,-0.059,44.922,2.014,1.038
9,1.026,-0.108,-0.044,42.114,-1.160,1.587
9,1.047,-0.114,-0.049,39.978,-2.075,1.587
9,1.044,-0.110,-0.061,37.537,-3.296,1.770
9,1.014,-0.095,-0.067,38.208,-3.967,2.014
9,0.991,-0.090,-0.048,38.696,-4.150,2.075
9,0.993,-0.087,-0.042,38.086,-5.127,2.136
9,1.027,-0.070,-0.065,36.438,-6.470,2.502
9,1.057,-0.057,-0.061,32.227,-8.728,3.540
9,1.101,-0.049,-0.046,30.640,-7.935,3.784
9,1.106,-0.048,-0.108,30.762,-5.859,3.906
9,1.107,-0.042,-0.120,34.851,-6.042,4.700
9,1.099,-0.045,-0.140,36.804,-5.432,5.188
9,1.095,-0.054,-0.150,37.109,-5.615,5.676
9,1.105,-0.068,-0.121,35.950,-6.592,5.615
9,1.092,-0.058,-0.109,33.264,-7.080,4.883
9,1.066,-0.046,-0.135,31.250,-7.080,4.150
9,0.993,-0.012,-0.164,30.518,-6.714,3.662
9,0.950,0.000,-0.164,32.349,-5.554,3.967
9,0.882,0.026,-0.148,31.860,-6.348,4.333
9,0.880,0.043,-0.137,30.334,-9.399,5.005
9,0.920,0.065,-0.130,30.212,-10.742,5.432
9,0.957,0.093,-0.155,32.410,-9.888,6.165
9,0.955,0.103,-0.188,35.889,-5.371,5.798
9,0.914,0.109,-0.231,38.147,-2.991,5.615
9,0.891,0.105,-0.229,43.701,2.014,6.104
9,0.870,0.088,-0.206,46.082,3.967,6.592
9,0.875,0.080,-0.195,48.096,6.104,7.874
9,0.911,0.067,-0.191,47.546,6.775,8.484
9,0.956,0.067,-0.189,44.373,8.118,9.399
9,0.970,0.069,-0.192,42.786,9.644,9.338
9,0.992,0.062,-0.179,40.649,9.460,8.972
9,1.011,0.056,-0.150,34.180,8.850,7.996
9,1.032,0.034,-0.153,33.203,9.216,6.897
9,1.029,0.026,-0.126,35.034,9.644,4.333
9,1.013,0.030,-0.108,29.846,7.874,2.136
9,0.971,0.047,-0.128,25.024,5.859,1.282
9,0.963,0.061,-0.130,20.020,3.540,1.160
9,0.950,0.099,-0.086,20.203,4.517,2.136
9,0.937,0.107,-0.092,22.583,7.019,4.089
9,0.931,0.128,-0.134,22.522,6.287,4.761
9,0.968,0.131,-0.109,20.508,3.540,3.967
9,0.979,0.121,-0.092,20.935,4.517,2.075
9,0.979,0.104,-0.103,22.522,5.615,2.014
9,0.973,0.103,-0.117,25.879,6.287,3.479
9,0.961,0.125,-0.140,26.733,6.409,4.456
9,0.957,0.137,-0.136,26.001,8.240,5.188
9,0.953,0.125,-0.120,24.658,9.827,4.639
9,0.942,0.087,-0.119,22.217,11.169,2.686
9,0.938,0.077,-0.117,19.775,9.460,1.648
9,0.948,0.078,-0.101,18.188,8.423,1.465
9,0.955,0.085,-0.101,14.404,6.592,1.221
9,0.968,0.097,-0.156,13.611,6.104,0.977
9,0.968,0.109,-0.199,12.451,3.845,-0.183
9,0.982,0.149,-0.177,10.620,2.136,-0.977
9,0.995,0.144,-0.138,5.798,1.221,-3.357
9,1.018,0.108,-0.080,3.052,0.732,-4.272
9,1.043,0.075,-0.047,-1.221,-1.953,-5.554
9,1.056,0.066,-0.031,-5.005,-6.592,-7.141
9,1.049,0.067,-0.030,-6.531,-8.423,-7.935
9,1.028,0.077,-0.053,-9.094,-12.024,-9.338
9,1.002,0.108,-0.090,-10.193,-14.343,-10.132
9,1.017,0.093,-0.102,-12.512,-18.616,-12.756
9,1.035,0.074,-0.098,-14.587,-20.508,-14.404
9,1.087,0.053,-0.063,-13.123,-19.836,-14.282
9,1.120,0.051,-0.052,-8.057,-15.686,-12.268
9,1.177,0.050,-0.063,-5.676,-8.972,-11.292
9,1.166,0.032,-0.126,-3.540,-5.310,-12.451
10,1.189,-0.041,-0.098,40.588,-2.563,13.489
10,1.178,-0.039,-0.088,37.720,-2.502,13.794
10,1.123,-0.039,-0.097,35.767,-1.953,13.733
10,1.059,-0.035,-0.121,33.997,-2.563,13.306
10,1.031,-0.027,-0.118,33.691,-2.136,12.512
10,0.960,-0.034,-0.141,33.447,-1.343,11.353
10,0.919,-0.040,-0.171,30.151,-3.235,9.216
10,0.877,-0.025,-0.179,27.527,-5.615,8.911
10,0.905,-0.004,-0.146,21.973,-8.545,8.728
10,0.933,0.001,-0.143,16.174,-9.827,8.301
10,0.992,0.021,-0.138,14.648,-9.644,8.484
10,1.009,0.041,-0.142,15.381,-6.470,9.460
10,1.011,0.077,-0.159,16.113,-4.456,9.888
10,0.996,0.083,-0.169,16.541,-1.526,10.193
10,0.948,0.086,-0.180,16.663,-1.282,10.498
10,0.930,0.095,-0.178,17.700,-2.380,11.902
10,0.921,0.117,-0.157,18.433,-3.235,12.878
10,0.932,0.128,-0.150,20.325,-3.845,14.160
10,0.956,0.144,-0.159,21.790,-2.747,14.404
10,0.964,0.136,-0.186,26.550,0.732,13.855
10,0.968,0.128,-0.193,27.100,0.977,13.000
10,0.969,0.110,-0.176,25.757,0.366,12.817
10,0.966,0.106,-0.165,23.437,-0.366,13.123
10,0.967,0.104,-0.164,23.071,-0.671,13.306
10,0.977,0.104,-0.161,23.499,-0.671,13.550
10,1.000,0.103,-0.157,23.376,0.122,13.428
10,1.003,0.105,-0.163,20.264,2.319,12.512
10,0.998,0.105,-0.172,18.372,3.113,11.597
10,0.990,0.105,-0.166,15.808,3.601,9.705
10,0.967,0.120,-0.149,14.648,3.296,9.094
10,0.970,0.140,-0.130,10.742,2.563,8.789
10,0.982,0.145,-0.113,4.333,1.282,9.399
10,1.008,0.145,-0.106,1.465,0.732,9.644
10,1.009,0.141,-0.128,2.808,-0.183,8.667
10,0.987,0.155,-0.105,6.348,0.488,8.362
10,0.960,0.165,-0.103,9.521,4.517,8.057
10,0.923,0.159,-0.141,8.423,5.676,7.629
10,0.920,0.154,-0.111,6.836,5.676,7.080
10,0.921,0.153,-0.085,8.972,7.141,6.836
10,0.913,0.130,-0.091,10.498,7.324,6.042
10,0.917,0.123,-0.085,10.132,4.944,4.517
10,0.949,0.129,-0.053,8.118,3.845,3.784
10,0.973,0.138,-0.057,3.357,3.967,2.930
10,1.033,0.165,-0.069,2.197,5.188,3.174
10,1.055,0.170,-0.063,1.648,9.399,3.601
10,1.053,0.141,-0.039,2.075,11.597,3.296
10,1.034,0.121,-0.033,3.723,12.451,2.197
10,0.992,0.097,-0.023,4.211,10.498,1.770
10,0.970,0.092,0.001,2.625,5.005,0.916
10,0.969,0.091,0.006,0.977,2.502,0.305
10,0.975,0.089,-0.007,-3.723,-1.831,-2.014
10,0.978,0.093,-0.016,-9.155,-4.883,-3.967
10,0.971,0.105,-0.016,-10.559,-4.578,-4.272
10,0.957,0.109,-0.026,-10.803,-2.014,-4.517
10,0.936,0.117,-0.014,-10.742,-1.282,-4.944
10,0.934,0.121,0.002,-10.925,-1.465,-5.371
10,0.943,0.123,0.001,-13.062,-2.319,-6.409
10,0.976,0.134,0.001,-14.282,-2.563,-6.836
10,0.995,0.151,-0.015,-16.357,-1.404,-7.141
10,0.991,0.152,-0.025,-16.602,0.977,-7.751
10,0.970,0.144,-0.030,-15.442,1.465,-8.362
10,0.964,0.139,-0.022,-14.465,-0.244,-9.827
10,0.974,0.123,0.006,-14.709,-1.831,-10.620
10,0.997,0.109,0.026,-16.174,-3.784,-11.841
10,1.006,0.107,0.012,-16.174,-3.357,-12.451
10,1.037,0.109,-0.033,-15.686,-3.418,-12.878
10,1.057,0.111,-0.051,-15.686,-4.639,-13.916
10,1.085,0.126,-0.052,-16.113,-5.188,-14.099
10,1.092,0.129,-0.051,-14.038,-4.883,-14.404
10,1.100,0.111,-0.074,-12.451,-4.944,-14.709
10,1.113,0.092,-0.102,-9.399,-5.615,-14.832
10,1.128,0.086,-0.104,-6.775,-6.531,-14.038
10,1.169,0.083,-0.094,-6.165,-6.409,-13.367
10,1.164,0.110,-0.150,-4.150,-3.662,-11.169
10,1.147,0.119,-0.154,-2.808,-0.122,-8.850
10,1.095,0.092,-0.102,-2.014,0.977,-8.362
10,1.058,0.060,-0.106,-0.610,-0.549,-9.155
10,0.995,-0.007,-0.110,2.075,-2.991,-10.193
10,0.925,-0.011,-0.092,8.057,-7.812,-11.841
10,0.886,-0.004,-0.115,2.930,-14.038,-12.207
10,0.850,0.012,-0.139,-2.075,-17.029,-11.597
10,0.854,0.017,-0.134,-8.545,-17.151,-10.193
10,0.878,0.001,-0.135,-8.911,-14.099,-10.010
10,0.888,-0.022,-0.138,-4.456,-5.920,-10.132
10,0.901,-0.069,-0.157,-1.221,-2.991,-10.010
10,0.916,-0.076,-0.180,1.770,-0.549,-9.583
10,0.920,-0.074,-0.189,-0.427,0.000,-10.376
10,0.932,-0.085,-0.183,-1.770,0.000,-11.230
10,0.939,-0.094,-0.169,-3.540,-0.122,-12.817
10,0.955,-0.092,-0.156,-4.761,-0.793,-13.123
10,0.972,-0.079,-0.150,-8.057,-3.906,-12.573
10,1.032,-0.057,-0.083,-9.216,-4.517,-11.841
10,1.073,-0.053,-0.073,-9.033,-1.099,-10.925
10,1.072,-0.055,-0.077,-8.423,0.854,-11.597
10,1.022,-0.067,-0.080,-7.324,0.793,-11.963
10,0.987,-0.067,-0.077,-4.272,0.183,-11.902
10,0.946,-0.062,-0.049,-3.418,0.000,-11.414
10,0.940,-0.066,-0.024,-2.991,-0.427,-10.498
10,0.950,-0.070,-0.021,-4.395,-0.732,-9.827
10,0.970,-0.073,-0.032,-4.333,-0.122,-9.583
10,0.971,-0.080,-0.043,-1.587,3.479,-9.094
10,0.953,-0.098,-0.069,0.549,5.493,-8.911
10,0.934,-0.089,-0.077,2.930,7.263,-7.263
10,0.934,-0.082,-0.072,3.174,7.019,-5.005
10,0.953,-0.084,-0.057,3.967,7.263,-4.211
10,0.964,-0.091,-0.052,6.836,8.301,-3.540
10,0.984,-0.099,-0.043,7.812,7.935,-3.601
10,0.992,-0.102,-0.039,8.362,5.615,-3.967
10,1.006,-0.101,-0.042,8.789,4.333,-4.150
10,1.012,-0.100,-0.043,8.850,3.296,-4.150
10,1.002,-0.100,-0.036,8.545,3.967,-3.906
10,0.987,-0.098,-0.025,7.629,7.385,-2.686
10,0.947,-0.093,-0.043,8.118,9.521,-1.953
10,0.926,-0.101,-0.055,12.207,11.292,-1.343
10,0.927,-0.106,-0.030,9.277,8.850,-0.732
10,0.940,-0.098,-0.031,6.775,6.836,-0.488
10,0.953,-0.089,-0.031,8.362,4.150,0.366
10,0.977,-0.068,-0.019,11.963,5.127,1.282
10,0.981,-0.059,-0.031,18.188,7.996,3.174
10,0.989,-0.064,-0.066,20.325,7.751,3.784
10,0.999,-0.074,-0.058,23.682,5.493,4.456
10,1.008,-0.091,-0.027,24.536,4.578,4.639
10,0.984,-0.090,-0.028,24.475,3.418,5.005
10,0.971,-0.085,-0.027,26.123,2.197,5.737
10,0.965,-0.084,-0.024,28.137,1.709,6.226
10,0.969,-0.087,-0.021,31.616,0.854,7.324
10,0.984,-0.085,-0.020,32.043,0.427,7.812
10,0.995,-0.078,-0.034,28.687,-1.709,8.789
10,1.042,-0.052,-0.042,27.283,-3.418,9.338
10,1.077,-0.042,-0.030,27.649,-4.517,10.803
10,1.139,-0.043,-0.047,27.344,-4.272,11.169
10,1.171,-0.060,-0.084,25.024,-5.066,11.169
10,1.172,-0.063,-0.104,25.574,-5.615,11.169
10,1.166,-0.056,-0.097,25.635,-5.615,11.475
10,1.161,-0.058,-0.095,24.597,-5.371,12.085
10,1.154,-0.055,-0.089,22.766,-4.883,12.512
10,1.148,-0.042,-0.079,18.677,-1.770,13.367
10,1.097,-0.020,-0.099,17.212,0.366,13.306
10,0.994,-0.025,-0.147,17.700,3.296,11.658
10,0.938,-0.030,-0.157,19.287,2.380,9.644
10,0.857,-0.013,-0.145,18.860,0.488,9.033
10,0.836,0.001,-0.140,17.273,-3.296,8.240
10,0.830,0.044,-0.155,16.785,-4.517,7.996
10,0.849,0.056,-0.176,14.343,-5.859,6.836
10,0.917,0.054,-0.188,11.841,-6.409,6.042
10,0.978,0.070,-0.168,9.766,-5.249,5.676
10,0.992,0.090,-0.177,9.888,-2.136,7.446
10,0.996,0.124,-0.191,10.803,-0.244,8.423
10,0.983,0.125,-0.198,14.404,3.784,9.033
10,0.935,0.116,-0.191,15.869,4.700,8.728
10,0.920,0.111,-0.164,16.968,4.822,7.935
10,0.912,0.104,-0.130,16.724,4.761,7.568
10,0.916,0.105,-0.149,18.066,4.272,6.775
10,0.962,0.110,-0.140,18.616,3.357,6.287
10,0.989,0.109,-0.130,12.939,1.892,5.798
10,1.030,0.102,-0.147,9.583,1.404,5.737
10,1.051,0.085,-0.122,10.986,1.404,5.798
10,1.045,0.075,-0.106,18.005,3.357,5.676
10,1.002,0.061,-0.131,19.531,3.601,5.371
10,0.981,0.064,-0.138,17.944,2.747,4.944
10,0.943,0.074,-0.121,14.160,3.479,4.211
10,0.910,0.092,-0.130,12.085,4.089,3.723
10,0.908,0.098,-0.134,8.667,3.357,2.502
10,0.927,0.104,-0.122,7.812,2.258,1.892
10,0.946,0.110,-0.113,5.798,0.549,1.404
10,0.987,0.123,-0.102,4.639,0.549,1.404
10,0.998,0.121,-0.098,4.944,2.686,1.709
10,0.992,0.123,-0.095,7.385,5.005,2.808
10,0.976,0.122,-0.090,7.812,4.944,3.296
10,0.972,0.122,-0.094,6.287,3.113,3.601
10,0.974,0.120,-0.106,5.066,1.831,3.418
10,0.977,0.119,-0.095,5.188,1.831,2.808
10,0.962,0.112,-0.100,5.981,3.174,2.563
10,0.957,0.107,-0.097,6.348,5.066,1.709
10,0.955,0.093,-0.080,5.554,5.615,0.916
10,0.955,0.086,-0.077,1.038,5.554,-0.549
10,0.959,0.087,-0.074,-2.075,4.944,-0.916
10,0.970,0.107,-0.065,-6.836,3.662,-1.099
10,0.977,0.112,-0.067,-8.789,3.540,-1.282
10,0.991,0.109,-0.086,-8.850,3.601,-1.404
10,0.998,0.119,-0.106,-8.545,3.052,-1.892
10,1.000,0.124,-0.113,-6.897,2.869,-3.174
10,0.988,0.125,-0.113,-5.371,3.601,-4.028
10,0.974,0.118,-0.110,-4.883,5.066,-5.371
10,0.958,0.095,-0.098,-6.287,4.517,-6.104
10,0.961,0.084,-0.095,-9.766,1.587,-7.874
10,0.971,0.057,-0.093,-13.245,-1.587,-10.132
10,0.969,0.046,-0.082,-14.832,-3.113,-11.169
10,0.972,0.046,-0.082,-17.151,-7.629,-12.939
10,1.009,0.070,-0.060,-18.921,-9.949,-13.245
10,1.067,0.099,-0.052,-24.353,-11.475,-12.085
10,1.091,0.104,-0.071,-26.184,-9.827,-11.108
10,1.119,0.077,-0.101,-25.391,-9.521,-11.536
10,1.134,0.061,-0.081,-24.414,-10.620,-12.207
10,1.156,0.045,-0.100,-24.475,-12.634,-12.207
10,1.211,0.055,-0.094,-20.691,-15.686,-10.559
10,1.231,0.062,-0.064,-10.254,-10.193,-9.827
10,1.180,0.048,-0.070,-7.324,-5.188,-10.315
10,1.113,0.025,-0.095,-5.920,0.977,-12.146
10,0.968,-0.018,-0.080,-5.127,1.831,-12.451
11,1.241,0.081,-0.023,-19.165,-12.451,-17.029
11,1.254,0.060,-0.034,-20.996,-15.076,-19.592
11,1.264,0.021,-0.093,-18.738,-17.151,-20.630
11,1.256,0.047,-0.080,-11.414,-19.531,-20.447
11,1.238,0.059,-0.070,-8.728,-13.123,-19.409
11,1.160,0.016,-0.090,-9.705,-8.850,-19.775
11,1.098,-0.034,-0.104,-13.611,-5.676,-20.996
11,0.958,-0.111,-0.114,-15.442,-7.080,-20.630
11,0.860,-0.124,-0.107,-16.663,-10.681,-18.066
11,0.827,-0.113,-0.123,-18.677,-11.963,-15.076
11,0.764,-0.071,-0.206,-20.264,-12.024,-14.099
11,0.752,-0.053,-0.206,-24.170,-12.085,-13.977
11,0.739,-0.075,-0.198,-33.936,-9.094,-13.794
11,0.761,-0.109,-0.190,-36.377,-6.165,-12.512
11,0.790,-0.125,-0.169,-27.466,2.502,-8.850
11,0.856,-0.143,-0.157,-19.653,5.981,-7.446
11,0.943,-0.157,-0.181,-12.512,4.700,-7.568
11,0.999,-0.163,-0.168,-19.226,-2.258,-9.155
11,1.087,-0.156,-0.118,-22.644,-3.784,-9.399
11,1.100,-0.137,-0.110,-22.400,-2.563,-7.874
11,1.096,-0.094,-0.116,-17.456,-0.549,-6.226
11,1.054,-0.097,-0.090,-15.930,0.183,-5.981
11,1.016,-0.102,-0.071,-14.099,2.319,-4.395
11,0.932,-0.105,-0.052,-12.268,3.540,-3.479
11,0.903,-0.111,-0.046,-8.301,3.784,-2.625
11,0.896,-0.143,-0.028,-7.935,2.441,-2.563
11,0.923,-0.160,-0.029,-10.193,-1.648,-2.014
11,0.943,-0.158,-0.032,-7.935,-3.723,-1.099
11,0.968,-0.151,-0.039,-5.798,-3.296,-0.671
11,0.972,-0.151,-0.028,-3.113,-0.183,-0.061
11,0.949,-0.177,-0.027,-1.953,2.136,-0.122
11,0.927,-0.186,-0.036,-2.747,4.272,-0.061
11,0.896,-0.175,-0.029,-2.380,4.333,0.183
11,0.895,-0.148,-0.022,2.258,3.601,1.160
11,0.901,-0.139,-0.009,3.540,2.502,3.906
11,0.915,-0.121,0.012,4.395,2.869,5.920
11,0.925,-0.107,0.008,10.498,5.554,9.705
11,0.953,-0.101,-0.005,13.733,6.775,11.108
11,0.959,-0.109,-0.012,17.273,8.240,12.817
11,0.948,-0.119,-0.031,18.677,8.362,13.184
11,0.942,-0.116,-0.038,20.447,7.019,13.672
11,0.941,-0.096,-0.034,20.996,6.226,14.038
11,0.968,-0.099,-0.018,24.597,6.714,14.709
11,0.984,-0.112,-0.026,28.076,8.057,13.977
11,1.017,-0.121,-0.039,28.442,7.507,13.733
11,1.032,-0.125,-0.035,28.992,5.310,13.855
11,1.048,-0.137,-0.025,29.419,4.028,14.221
11,1.061,-0.137,0.006,29.907,0.916,15.320
11,1.064,-0.131,0.019,31.372,-3.052,15.991
11,1.082,-0.119,0.009,31.982,-5.981,15.991
11,1.109,-0.105,-0.022,30.762,-14.893,17.822
11,1.220,-0.031,0.011,28.320,-18.188,19.775
11,1.277,-0.019,0.024,26.672,-18.250,20.325
11,1.313,-0.056,-0.057,29.541,-19.165,19.226
11,1.297,-0.048,-0.100,29.175,-24.841,21.240
11,1.273,0.021,-0.145,25.818,-25.391,24.109
11,1.230,0.078,-0.138,27.832,-21.118,27.588
11,1.186,0.093,-0.092,44.983,-13.245,23.926
11,1.021,0.062,-0.163,48.645,-11.108,19.836
11,0.941,0.061,-0.207,40.161,-12.207,16.541
11,0.840,0.094,-0.160,38.879,-12.085,16.479
11,0.742,0.068,-0.130,42.419,-8.850,15.076
11,0.708,0.046,-0.180,44.678,-8.728,12.207
11,0.733,0.084,-0.205,43.579,-9.521,11.353
11,0.782,0.114,-0.168,36.499,-5.798,10.498
11,0.864,0.141,-0.140,33.325,-0.549,10.742
11,0.887,0.146,-0.162,33.020,10.986,12.878
11,0.934,0.130,-0.193,36.804,15.564,15.442
11,0.995,0.097,-0.118,37.659,14.404,16.113
11,1.022,0.085,-0.081,35.339,8.301,15.259
11,1.056,0.076,-0.060,32.715,4.578,13.672
11,1.047,0.084,-0.050,25.574,-0.427,10.010
11,0.993,0.093,-0.055,20.996,-0.122,8.301
11,0.964,0.076,-0.066,10.254,2.197,4.395
11,0.905,0.048,-0.053,4.822,1.953,2.930
11,0.872,0.076,-0.030,-5.371,0.000,2.930
11,0.873,0.090,-0.037,-8.606,1.160,4.578
11,0.896,0.129,-0.062,-7.141,2.686,5.676
11,0.919,0.167,-0.073,-5.676,4.028,6.714
11,0.973,0.192,-0.077,-7.935,3.296,5.432
11,0.988,0.182,-0.070,-13.000,3.235,1.648
11,0.996,0.161,-0.030,-15.564,4.089,0.610
11,0.990,0.154,-0.006,-19.409,7.019,0.061
11,0.958,0.139,-0.047,-20.142,7.385,-0.305
11,0.936,0.141,-0.062,-21.912,3.784,-1.160
11,0.943,0.136,-0.022,-26.550,2.380,-1.343
11,0.958,0.089,0.013,-27.893,2.319,-1.953
11,0.961,0.067,-0.001,-30.151,0.793,-3.479
11,0.964,0.076,-0.016,-33.325,-0.610,-3.784
11,0.971,0.095,-0.008,-40.588,-1.282,-4.578
11,0.981,0.118,-0.018,-43.396,0.305,-6.531
11,0.993,0.120,-0.032,-43.396,0.549,-7.507
11,1.001,0.117,-0.016,-41.382,1.038,-9.216
11,1.019,0.097,0.010,-40.405,0.916,-10.193
11,1.031,0.088,0.018,-41.016,-1.282,-12.146
11,1.050,0.084,0.010,-42.175,-2.380,-13.245
11,1.053,0.080,-0.003,-44.373,-4.028,-15.869
11,1.053,0.075,0.010,-44.617,-5.554,-18.921
11,1.070,0.044,0.039,-43.823,-7.019,-20.630
11,1.085,0.032,0.038,-44.250,-11.536,-23.376
11,1.122,0.035,0.028,-45.715,-13.489,-24.170
11,1.136,0.037,0.035,-50.232,-14.832,-26.123
11,1.150,0.010,-0.038,-50.964,-15.991,-28.015
11,1.179,-0.028,-0.191,-47.363,-24.780,-31.738
11,1.218,-0.007,-0.172,-40.894,-28.076,-28.259
11,1.267,0.040,-0.124,-36.987,-23.132,-26.733
11,1.247,0.043,-0.147,-38.757,-10.803,-28.748
11,1.119,-0.053,-0.146,-41.626,-4.456,-34.302
11,0.887,-0.171,-0.157,-40.894,-2.686,-34.912
11,0.783,-0.176,-0.188,-47.546,-4.456,-29.480
11,0.706,-0.101,-0.158,-51.147,-5.310,-24.902
11,0.742,-0.049,-0.128,-48.279,-1.709,-16.541
11,0.788,-0.045,-0.124,-36.072,4.272,-10.925
11,0.875,-0.064,-0.088,-29.419,7.080,-9.521
11,0.903,-0.076,-0.089,-22.278,10.437,-8.362
11,0.950,-0.073,-0.102,-23.010,7.751,-5.798
11,1.010,-0.031,-0.062,-22.400,6.958,-4.089
11,1.041,-0.025,-0.056,-17.212,7.996,-2.502
11,1.065,-0.062,-0.071,-14.221,8.850,-2.686
11,1.024,-0.098,-0.079,-10.010,9.705,-2.136
11,0.984,-0.098,-0.084,-6.592,7.935,-0.549
11,0.927,-0.090,-0.058,-5.310,6.348,-0.061
11,0.915,-0.090,-0.047,-3.601,6.104,0.366
11,0.905,-0.103,-0.030,-3.052,7.019,0.977
11,0.904,-0.114,-0.027,-1.587,9.216,3.052
11,0.908,-0.116,-0.041,-0.305,9.888,3.906
11,0.931,-0.108,-0.030,2.747,11.108,5.249
11,0.935,-0.107,-0.019,6.714,13.184,6.042
11,0.913,-0.099,-0.023,8.057,14.221,6.348
11,0.909,-0.099,-0.032,7.019,15.686,6.714
11,0.924,-0.105,-0.040,6.104,15.808,6.531
11,0.935,-0.101,-0.039,5.554,14.404,5.554
11,0.957,-0.095,-0.021,5.798,14.221,5.066
11,0.940,-0.096,-0.008,10.559,15.686,4.883
11,0.927,-0.099,-0.005,17.517,15.015,4.639
11,0.932,-0.103,-0.023,19.409,13.306,4.333
11,0.956,-0.105,-0.041,18.372,8.362,4.456
11,1.007,-0.104,-0.045,17.212,5.981,5.066
11,1.023,-0.096,-0.034,22.034,4.395,7.202
11,1.050,-0.075,-0.015,26.733,4.944,8.362
11,1.060,-0.051,-0.022,30.334,5.798,9.888
11,1.065,-0.058,-0.022,23.437,5.310,8.728
11,1.050,-0.101,-0.015,21.484,5.310,7.324
11,1.024,-0.113,-0.031,25.879,4.944,5.676
11,0.990,-0.109,-0.033,26.978,2.808,6.226
11,1.003,-0.089,-0.060,20.142,-4.089,8.484
11,1.092,-0.034,-0.091,18.250,-9.644,8.789
11,1.168,-0.010,-0.071,19.592,-10.620,7.812
11,1.180,-0.014,-0.084,19.470,-12.878,6.287
11,1.193,-0.011,-0.176,19.836,-15.259,6.653
11,1.202,0.041,-0.224,23.865,-21.606,8.789
11,1.197,0.066,-0.188,24.414,-24.597,9.583
11,1.146,0.061,-0.139,20.081,-25.452,6.531
11,1.098,0.033,-0.190,20.081,-19.348,-1.892
11,0.989,0.020,-0.204,20.752,-16.174,-3.540
11,0.936,0.030,-0.153,29.541,-8.484,-3.540
11,0.840,0.036,-0.128,34.485,-5.371,-4.395
11,0.819,0.037,-0.152,32.410,-2.319,-6.531
11,0.847,0.026,-0.167,26.855,-1.221,-7.080
11,0.882,0.010,-0.159,20.264,2.197,-7.385
11,0.884,0.015,-0.154,21.545,4.395,-4.944
11,0.891,0.034,-0.160,22.217,4.822,-2.747
11,0.917,0.047,-0.177,22.278,3.967,1.160
11,1.013,0.067,-0.128,21.057,2.747,2.197
11,1.049,0.058,-0.108,18.555,1.221,1.160
11,1.055,0.025,-0.105,19.897,2.136,0.183
11,0.992,0.029,-0.094,20.996,3.967,0.366
11,0.952,0.032,-0.099,21.667,7.385,0.122
11,0.902,0.023,-0.108,21.545,8.484,-0.427
11,0.894,0.012,-0.101,18.066,9.399,-1.465
11,0.898,-0.011,-0.078,14.465,8.972,-1.648
11,0.906,-0.016,-0.068,7.019,7.446,-0.488
11,0.928,-0.013,-0.059,4.761,7.263,0.793
11,0.941,-0.003,-0.066,4.639,8.850,4.028
11,0.978,0.024,-0.086,4.761,9.216,4.761
11,1.000,0.028,-0.091,1.953,9.216,3.479
11,0.995,0.017,-0.099,-2.625,11.536,1.221
11,0.957,-0.005,-0.091,-5.798,12.451,0.671
11,0.933,-0.011,-0.083,-12.390,12.329,0.366
11,0.906,-0.004,-0.060,-15.747,11.658,0.488
11,0.910,0.006,-0.048,-21.790,10.315,0.732
11,0.930,0.019,-0.047,-23.682,9.888,0.671
11,0.943,0.026,-0.062,-26.550,9.155,0.549
11,0.964,0.038,-0.077,-27.649,8.789,0.183
11,0.972,0.032,-0.043,-27.405,7.568,-1.709
11,0.976,0.014,-0.039,-28.687,6.104,-3.174
11,1.010,0.020,-0.062,-29.175,1.343,-6.165
11,1.034,0.027,-0.058,-25.391,0.854,-8.728
11,1.076,0.043,-0.086,-25.269,2.136,-9.644
11,1.096,0.041,-0.121,-25.940,3.662,-10.681
11,1.138,0.022,-0.135,-23.987,4.395,-10.376
11,1.167,-0.005,-0.132,-15.930,5.188,-7.874
11,1.257,-0.056,-0.146,-10.742,3.479,-5.920
11,1.361,-0.028,-0.152,-1.892,0.122,-2.441
11,1.386,-0.028,-0.161,-2.686,0.366,-2.686
11,1.319,-0.076,-0.167,-15.198,3.601,-7.019
11,1.220,-0.106,-0.179,-26.611,4.822,-11.108
11,0.979,-0.118,-0.170,-27.832,2.625,-11.230
11,0.801,-0.112,-0.193,-29.053,-2.319,-9.888
11,0.735,-0.111,-0.227,-38.513,-9.338,-7.568
12,1.314,-0.054,-0.062,20.142,-27.100,13.489
12,1.413,-0.043,-0.178,18.494,-29.541,15.076
12,1.429,0.001,-0.150,21.301,-31.433,17.456
12,1.367,0.021,-0.119,27.283,-20.935,14.893
12,1.132,-0.020,-0.151,29.297,-15.442,10.742
12,0.995,-0.049,-0.183,28.931,-14.954,3.967
12,0.789,-0.043,-0.133,28.870,-16.968,2.625
12,0.693,-0.013,-0.144,25.696,-20.203,0.732
12,0.696,0.001,-0.151,23.132,-23.132,0.854
12,0.785,0.034,-0.140,25.452,-22.644,2.319
12,0.843,0.052,-0.127,33.203,-16.785,6.531
12,0.922,0.092,-0.133,35.645,-11.597,8.545
12,0.961,0.108,-0.141,34.729,-2.808,10.681
12,0.971,0.100,-0.144,35.828,-0.916,10.315
12,0.982,0.066,-0.115,40.161,-1.526,10.376
12,0.987,0.047,-0.094,50.964,-0.427,11.902
12,0.987,0.025,-0.074,51.331,0.610,12.695
12,0.984,0.027,-0.078,40.161,0.793,12.756
12,0.979,0.013,-0.072,33.142,1.343,11.536
12,0.967,-0.001,-0.059,23.621,4.822,7.690
12,0.946,-0.020,-0.040,20.813,6.165,6.042
12,0.944,-0.009,-0.043,14.221,7.202,5.127
12,0.941,0.010,-0.060,5.554,7.568,5.859
12,0.948,0.048,-0.086,1.953,7.446,5.859
12,0.962,0.066,-0.076,-3.235,9.521,5.127
12,0.983,0.084,-0.039,-4.883,11.841,4.517
12,0.984,0.081,-0.036,-4.944,15.259,3.235
12,0.984,0.082,-0.024,-6.287,16.296,3.601
12,0.961,0.092,-0.059,-7.690,16.113,3.723
12,0.962,0.095,-0.064,-8.118,16.296,3.662
12,0.976,0.083,-0.022,-7.446,16.785,3.357
12,0.979,0.068,-0.007,-8.423,16.479,2.014
12,0.955,0.043,-0.038,-9.460,14.587,1.404
12,0.942,0.054,-0.063,-9.949,10.803,0.854
12,0.937,0.062,-0.065,-9.521,10.071,-0.366
12,0.932,0.066,-0.065,-11.230,10.132,-1.038
12,0.943,0.060,-0.063,-16.052,7.996,-2.563
12,0.988,0.040,-0.031,-19.165,5.798,-4.944
12,1.014,0.012,-0.036,-21.118,5.554,-6.653
12,1.019,0.009,-0.047,-24.292,3.845,-9.888
12,1.022,0.028,-0.051,-24.780,2.869,-11.292
12,1.026,0.032,-0.055,-24.841,1.404,-14.526
12,1.032,0.021,-0.053,-25.635,-0.793,-17.639
12,1.068,-0.009,-0.088,-26.306,-2.502,-18.921
12,1.107,-0.019,-0.085,-26.428,-5.615,-19.836
12,1.186,-0.026,-0.071,-24.841,-5.798,-20.386
12,1.259,-0.033,-0.104,-24.902,-6.592,-20.996
12,1.278,-0.020,-0.105,-26.611,-5.615,-21.240
12,1.220,-0.017,-0.143,-26.611,-1.648,-21.301
12,1.061,-0.049,-0.205,-24.536,4.822,-21.057
12,0.991,-0.034,-0.183,-25.635,3.235,-16.663
12,0.910,-0.019,-0.141,-27.710,1.831,-14.465
12,0.891,-0.033,-0.152,-28.076,0.244,-12.207
12,0.858,-0.071,-0.219,-25.208,0.671,-11.719
12,0.840,-0.081,-0.251,-19.104,2.625,-11.047
12,0.833,-0.108,-0.257,-18.066,2.014,-10.437
12,0.858,-0.128,-0.238,-18.066,1.221,-10.437
12,0.877,-0.129,-0.240,-20.996,-0.916,-10.559
12,0.928,-0.130,-0.269,-24.170,-2.686,-10.620
12,0.970,-0.133,-0.265,-27.588,-5.615,-10.925
12,0.989,-0.134,-0.223,-23.621,-5.432,-11.414
12,1.017,-0.137,-0.123,-21.606,-4.150,-11.536
12,1.025,-0.134,-0.103,-22.095,-1.892,-10.437
12,1.029,-0.117,-0.150,-21.973,-0.854,-9.277
12,1.023,-0.105,-0.178,-16.541,2.075,-6.287
12,0.987,-0.080,-0.162,-13.977,3.357,-5.066
12,0.929,-0.090,-0.150,-12.756,5.310,-4.456
12,0.913,-0.107,-0.125,-10.925,5.981,-5.188
12,0.889,-0.142,-0.065,-8.911,6.714,-5.127
12,0.874,-0.155,-0.071,-3.235,6.714,-3.357
12,0.876,-0.151,-0.097,-0.244,5.249,-1.892
12,0.900,-0.142,-0.093,2.930,2.808,0.549
12,0.961,-0.143,-0.089,3.601,2.991,1.343
12,0.982,-0.162,-0.096,4.517,5.432,2.075
12,0.972,-0.165,-0.090,5.188,6.531,2.441
12,0.934,-0.161,-0.091,6.897,7.935,3.967
12,0.920,-0.158,-0.098,8.545,7.874,5.615
12,0.922,-0.147,-0.092,9.033,6.775,6.165
12,0.940,-0.140,-0.077,9.705,4.578,7.507
12,0.987,-0.139,-0.055,10.132,3.967,8.179
12,1.005,-0.141,-0.055,11.292,3.479,9.277
12,1.020,-0.134,-0.069,11.719,2.991,9.705
12,1.019,-0.130,-0.054,11.597,2.502,10.620
12,0.991,-0.134,-0.058,12.085,3.052,10.803
12,0.974,-0.128,-0.062,15.686,1.831,11.597
12,0.957,-0.119,-0.048,18.433,0.916,11.963
12,0.959,-0.100,-0.046,21.240,-0.366,12.634
12,0.971,-0.089,-0.044,21.362,0.305,13.306
12,0.998,-0.088,-0.039,22.095,1.770,13.428
12,1.005,-0.098,-0.034,23.437,5.432,13.611
12,0.998,-0.120,-0.039,23.560,6.287,13.489
12,0.991,-0.125,-0.050,22.583,4.700,12.390
12,0.984,-0.125,-0.045,21.179,2.319,11.536
12,0.984,-0.124,-0.027,18.616,-3.174,10.010
12,1.001,-0.116,-0.032,16.479,-6.165,9.521
12,1.027,-0.104,-0.037,13.672,-11.841,8.545
12,1.089,-0.082,-0.029,14.038,-12.756,7.874
12,1.106,-0.087,-0.080,13.123,-12.451,6.348
12,1.106,-0.087,-0.100,14.282,-13.306,5.981
12,1.123,-0.077,-0.108,14.404,-13.489,6.348
12,1.147,-0.061,-0.127,11.475,-13.855,8.545
12,1.221,0.008,-0.172,10.925,-13.855,10.071
12,1.242,0.042,-0.145,13.123,-8.240,9.888
12,1.173,0.044,-0.128,14.282,-1.587,7.568
12,0.985,0.003,-0.176,18.616,7.874,3.479
12,0.895,-0.002,-0.162,22.522,9.399,3.601
12,0.767,0.009,-0.137,28.015,6.897,4.883
12,0.744,0.023,-0.157,27.405,2.625,4.700
12,0.799,0.064,-0.220,23.560,-7.324,3.479
12,0.856,0.078,-0.229,18.188,-9.033,2.625
12,0.938,0.094,-0.200,16.541,-5.737,2.441
12,0.951,0.094,-0.198,19.226,3.113,2.808
12,0.950,0.092,-0.194,22.095,5.798,3.601
12,0.951,0.092,-0.175,27.283,6.653,5.676
12,0.976,0.078,-0.151,28.076,5.310,6.531
12,1.027,0.055,-0.112,26.855,1.343,8.118
12,1.046,0.047,-0.091,24.414,0.061,9.277
12,1.055,0.015,-0.078,22.217,-0.244,9.277
12,1.042,0.000,-0.076,19.226,-1.343,7.996
12,0.990,0.001,-0.075,18.738,-2.136,7.141
12,0.964,0.013,-0.061,17.822,-2.380,5.737
12,0.920,0.042,-0.068,17.029,-0.916,5.249
12,0.906,0.058,-0.082,13.000,2.319,5.127
12,0.910,0.067,-0.066,9.338,5.249,6.165
12,0.924,0.056,-0.050,7.568,6.226,6.958
12,0.930,0.051,-0.055,4.333,6.714,8.240
12,0.939,0.048,-0.080,4.150,6.775,8.362
12,0.944,0.054,-0.086,5.737,6.836,7.324
12,0.946,0.083,-0.083,5.859,7.751,6.226
12,0.951,0.093,-0.057,4.272,8.667,5.920
12,0.958,0.088,-0.047,-0.366,10.986,5.432
12,0.970,0.073,-0.044,-2.563,11.780,5.310
12,0.975,0.071,-0.046,-6.226,12.878,5.493
12,0.973,0.072,-0.044,-7.690,13.611,5.493
12,0.965,0.072,-0.052,-9.460,13.550,4.761
12,0.948,0.063,-0.074,-9.705,12.146,3.845
12,0.939,0.069,-0.071,-9.949,7.324,1.282
12,0.943,0.076,-0.055,-11.658,3.357,-0.916
12,0.968,0.086,-0.038,-13.611,2.686,-1.526
12,0.979,0.080,-0.054,-15.747,2.625,-2.930
12,1.000,0.061,-0.090,-15.076,2.441,-3.784
12,1.014,0.058,-0.068,-14.160,1.831,-4.517
12,1.027,0.053,-0.076,-17.944,0.305,-5.737
12,1.055,0.053,-0.081,-19.165,-0.916,-6.531
12,1.078,0.053,-0.038,-17.883,-1.465,-8.911
12,1.102,0.031,0.015,-16.785,-1.343,-10.742
12,1.102,0.014,0.010,-17.761,-4.211,-13.733
12,1.112,0.000,0.003,-21.545,-10.498,-14.526
12,1.145,0.012,-0.018,-23.010,-13.123,-14.954
12,1.167,0.011,-0.039,-25.024,-17.761,-16.907
12,1.191,0.007,-0.037,-26.123,-19.775,-17.639
12,1.189,0.000,-0.051,-25.330,-22.888,-19.104
12,1.201,-0.019,-0.134,-23.010,-25.208,-19.409
12,1.242,0.021,-0.131,-17.334,-28.503,-16.846
12,1.243,0.039,-0.124,-13.000,-20.081,-14.771
12,1.160,-0.008,-0.190,-12.512,-13.245,-15.320
12,1.085,-0.051,-0.183,-14.587,-3.784,-15.808
12,0.898,-0.126,-0.139,-13.367,2.563,-13.672
12,0.728,-0.155,-0.193,-13.550,2.991,-11.597
12,0.692,-0.146,-0.232,-18.982,-1.892,-7.874
12,0.715,-0.087,-0.239,-22.705,-4.944,-6.714
12,0.797,-0.051,-0.217,-31.067,-6.592,-4.333
12,0.842,-0.056,-0.215,-38.452,-1.831,-2.502
12,0.903,-0.071,-0.214,-38.879,1.648,-2.075
12,0.923,-0.077,-0.222,-33.691,7.080,-1.282
12,0.975,-0.071,-0.201,-29.968,7.385,-0.366
12,1.038,-0.055,-0.129,-23.743,6.104,1.343
12,1.059,-0.056,-0.112,-23.499,7.324,1.465
12,1.047,-0.062,-0.112,-23.926,9.033,1.465
12,1.018,-0.066,-0.119,-20.813,12.695,2.197
12,0.952,-0.079,-0.120,-17.761,13.733,2.625
12,0.929,-0.084,-0.108,-10.986,13.916,3.113
12,0.923,-0.089,-0.086,-8.484,12.756,3.174
12,0.941,-0.092,-0.080,-6.165,8.911,2.808
12,0.978,-0.106,-0.078,-5.188,6.775,2.502
12,0.975,-0.100,-0.075,-4.395,6.470,2.869
12,0.962,-0.090,-0.068,-2.380,7.324,4.028
12,0.925,-0.088,-0.080,-0.671,7.874,4.395
12,0.890,-0.079,-0.086,4.639,8.606,5.127
12,0.880,-0.075,-0.058,6.348,8.728,6.226
12,0.864,-0.085,-0.082,5.920,8.362,6.287
12,0.873,-0.095,-0.081,11.597,6.714,5.676
12,0.902,-0.108,-0.023,16.663,6.470,5.371
12,0.913,-0.100,-0.047,22.766,5.676,4.944
12,0.926,-0.087,-0.073,23.621,1.526,4.578
12,0.977,-0.066,-0.079,23.010,-0.061,4.456
12,1.008,-0.069,-0.086,20.874,0.305,4.456
12,1.010,-0.074,-0.096,24.170,3.235,5.249
12,1.015,-0.080,-0.096,27.527,4.150,5.920
12,1.021,-0.083,-0.084,32.288,4.822,7.141
12,1.036,-0.098,-0.052,32.410,4.944,7.507
12,1.045,-0.107,-0.039,30.151,3.052,7.019
12,1.074,-0.111,-0.058,27.283,-0.122,6.348
12,1.098,-0.101,-0.076,19.775,-8.728,5.066
12,1.166,-0.054,-0.094,16.602,-13.184,5.493
12,1.222,0.000,-0.102,16.357,-13.367,6.348
12,1.237,0.015,-0.120,13.062,-12.024,8.972
12,1.257,0.005,-0.149,11.475,-10.620,10.254
12,1.240,-0.001,-0.152,14.771,-7.751,12.634
12,1.210,0.001,-0.148,22.339,-7.019,12.512
13,0.657,-0.168,-0.211,-26.794,7.690,-10.376
13,0.665,-0.147,-0.205,-27.832,1.282,-4.578
13,0.798,-0.119,-0.180,-30.396,-2.441,-2.258
13,0.946,-0.071,-0.166,-34.851,-4.150,0.549
13,1.000,-0.062,-0.160,-37.537,1.221,-0.488
13,1.043,-0.093,-0.206,-38.574,3.052,-1.770
13,1.054,-0.100,-0.169,-39.673,2.930,-2.258
13,1.040,-0.083,-0.098,-39.978,3.235,-1.892
13,1.019,-0.070,-0.109,-39.185,4.944,-1.526
13,0.975,-0.069,-0.091,-36.255,6.042,-1.282
13,0.915,-0.075,-0.061,-28.503,8.911,0.183
13,0.891,-0.073,-0.077,-20.203,7.202,0.854
13,0.903,-0.064,-0.058,-17.090,4.761,0.793
13,0.923,-0.065,-0.038,-13.123,3.723,0.366
13,0.946,-0.076,-0.059,-12.573,5.005,0.122
13,0.941,-0.088,-0.073,-9.583,7.324,0.488
13,0.935,-0.098,-0.060,-0.854,9.399,1.892
13,0.913,-0.120,-0.041,3.113,10.193,2.380
13,0.904,-0.127,-0.038,7.324,9.705,3.174
13,0.898,-0.132,-0.040,7.812,8.606,3.479
13,0.913,-0.130,-0.030,6.836,5.859,3.540
13,0.926,-0.126,-0.021,7.568,4.700,3.357
13,0.946,-0.109,-0.013,9.888,5.371,3.540
13,0.945,-0.102,-0.023,15.259,7.690,4.211
13,0.951,-0.089,-0.030,16.968,8.240,4.456
13,0.959,-0.102,-0.052,18.555,9.033,3.967
13,0.957,-0.113,-0.046,17.700,7.996,3.784
13,0.956,-0.123,-0.022,17.395,7.019,4.333
13,0.959,-0.114,-0.025,18.799,5.005,6.714
13,0.987,-0.079,-0.045,19.775,4.333,8.118
13,1.011,-0.062,-0.053,19.775,4.028,10.193
13,1.056,-0.051,-0.057,18.738,4.028,10.681
13,1.070,-0.085,-0.043,19.287,5.249,10.376
13,1.062,-0.107,-0.032,23.376,6.042,9.216
13,1.038,-0.127,-0.013,24.780,4.639,8.850
13,1.035,-0.126,-0.019,22.644,-2.441,8.667
13,1.077,-0.100,-0.066,19.165,-7.507,8.728
13,1.163,-0.047,-0.030,14.893,-14.771,9.521
13,1.190,-0.051,-0.026,12.451,-16.052,8.606
13,1.193,-0.081,-0.088,12.268,-17.761,8.179
13,1.182,-0.067,-0.127,14.648,-22.522,10.559
13,1.177,0.018,-0.185,14.648,-22.156,15.930
13,1.209,0.087,-0.171,15.808,-19.897,17.090
13,1.199,0.089,-0.148,18.921,-14.343,14.038
13,1.082,0.062,-0.183,17.761,-12.939,11.414
13,0.997,0.060,-0.198,16.846,-9.583,9.033
13,0.838,0.085,-0.179,18.982,-6.104,8.972
13,0.785,0.087,-0.187,22.766,-2.563,6.836
13,0.771,0.087,-0.216,23.682,-4.150,5.432
13,0.844,0.100,-0.195,25.269,-6.470,4.395
13,0.877,0.102,-0.220,24.902,-2.014,2.808
13,0.941,0.077,-0.221,25.330,0.366,1.770
13,0.954,0.057,-0.191,27.283,3.906,0.366
13,0.957,0.033,-0.152,28.381,4.028,0.122
13,0.967,0.031,-0.126,31.250,0.061,0.366
13,1.016,0.032,-0.065,32.227,-2.014,0.366
13,1.026,0.028,-0.061,30.884,-2.075,-0.488
13,0.987,0.020,-0.079,28.748,-0.366,-0.977
13,0.925,0.009,-0.038,24.658,2.991,-2.136
13,0.909,0.005,-0.011,19.531,3.906,-2.686
13,0.912,0.005,-0.001,16.235,4.028,-2.502
13,0.918,0.013,-0.014,10.864,5.066,-0.854
13,0.935,0.034,-0.041,9.338,5.920,0.305
13,0.949,0.038,-0.051,6.775,6.897,1.953
13,0.975,0.041,-0.069,5.676,6.653,2.075
13,0.980,0.047,-0.065,3.174,5.676,1.648
13,0.968,0.052,-0.064,-0.977,4.211,1.526
13,0.941,0.045,-0.041,-3.845,3.662,1.465
13,0.928,0.034,-0.047,-10.071,3.479,0.977
13,0.905,0.017,-0.052,-13.062,3.235,0.427
13,0.882,0.013,-0.042,-18.188,4.272,-0.732
13,0.875,0.013,-0.039,-23.132,6.226,-1.648
13,0.874,0.012,-0.035,-25.330,6.409,-1.953
13,0.885,0.021,-0.033,-28.809,4.517,-2.197
13,0.930,0.049,-0.044,-32.654,1.465,-3.235
13,0.989,0.059,-0.080,-34.607,-0.244,-4.395
13,1.019,0.054,-0.089,-36.316,-3.113,-7.141
13,1.073,0.049,-0.062,-35.095,-4.028,-8.301
13,1.097,0.048,-0.033,-30.884,-4.456,-10.132
13,1.124,0.027,0.013,-28.625,-3.357,-11.414
13,1.133,-0.001,0.038,-24.292,-2.075,-15.015
13,1.139,-0.014,0.050,-24.353,-3.906,-18.616
13,1.134,-0.036,0.039,-25.452,-5.676,-20.081
13,1.132,-0.037,0.033,-27.832,-10.559,-21.362
13,1.151,-0.015,0.019,-29.541,-13.550,-21.240
13,1.175,0.016,0.023,-30.273,-18.433,-21.484
13,1.176,0.004,-0.012,-28.259,-21.179,-22.766
13,1.165,-0.038,-0.133,-26.123,-23.376,-22.644
13,1.163,-0.032,-0.147,-19.348,-25.574,-19.043
13,1.146,-0.008,-0.094,-15.503,-21.912,-17.395
13,1.041,-0.067,-0.137,-8.667,-6.165,-16.968
13,0.968,-0.114,-0.159,-10.132,4.395,-14.404
13,0.829,-0.166,-0.189,-12.268,6.897,-11.902
13,0.788,-0.174,-0.188,-12.024,8.911,-7.202
13,0.785,-0.174,-0.163,-11.230,9.216,-5.249
13,0.812,-0.165,-0.162,-10.620,9.155,-2.197
13,0.890,-0.137,-0.179,-11.292,8.057,-1.465
13,0.975,-0.125,-0.151,-15.564,6.409,-1.404
13,1.011,-0.134,-0.143,-23.010,6.714,-2.502
13,1.059,-0.131,-0.131,-26.123,6.042,-2.502
13,1.066,-0.106,-0.097,-26.367,5.188,-1.404
13,1.046,-0.097,-0.080,-24.231,7.324,-0.122
13,0.983,-0.099,-0.068,-23.499,8.667,0.244
13,0.944,-0.104,-0.062,-19.104,10.071,1.038
13,0.882,-0.098,-0.044,-15.076,10.071,1.465
13,0.873,-0.092,-0.037,-7.629,8.545,1.892
13,0.895,-0.103,-0.043,-5.554,7.935,1.892
13,0.918,-0.130,-0.047,-2.869,7.935,1.892
13,0.918,-0.137,-0.045,-1.648,8.484,2.319
13,0.914,-0.141,-0.031,2.502,10.681,4.089
13,0.910,-0.139,-0.047,7.141,11.353,5.066
13,0.916,-0.134,-0.047,7.568,10.132,5.127
13,0.921,-0.134,-0.041,7.141,7.629,4.761
13,0.919,-0.130,-0.063,6.653,6.775,4.456
13,0.915,-0.129,-0.069,8.667,6.653,4.272
13,0.911,-0.122,-0.041,11.414,7.568,4.456
13,0.917,-0.132,-0.033,16.174,8.850,4.883
13,0.925,-0.134,-0.044,17.273,5.859,5.188
13,0.957,-0.116,-0.055,17.029,3.845,5.493
13,0.978,-0.105,-0.052,16.113,1.648,6.897
13,1.020,-0.092,-0.031,16.846,1.404,7.935
13,1.043,-0.089,-0.026,21.301,2.625,10.376
13,1.077,-0.094,-0.063,23.254,4.333,12.024
13,1.078,-0.105,-0.073,23.682,5.249,12.512
13,1.069,-0.108,-0.065,24.475,7.202,12.695
13,1.040,-0.135,-0.034,24.353,7.263,12.146
13,1.017,-0.153,-0.027,22.766,2.563,10.254
13,1.011,-0.165,-0.036,20.630,-2.319,9.644
13,1.045,-0.146,-0.026,16.541,-13.855,10.376
13,1.121,-0.061,-0.018,14.648,-17.578,11.230
13,1.169,-0.051,-0.078,11.536,-20.935,10.986
13,1.181,-0.068,-0.088,14.709,-23.560,9.644
13,1.186,-0.049,-0.153,14.771,-26.245,10.254
13,1.204,-0.005,-0.186,9.583,-32.349,14.526
13,1.228,0.082,-0.120,8.911,-30.457,16.113
13,1.196,0.091,-0.098,8.545,-15.747,13.733
13,1.043,0.059,-0.166,5.859,-11.414,10.254
13,0.950,0.049,-0.179,2.686,-10.498,5.310
13,0.804,0.061,-0.135,2.686,-9.644,4.639
13,0.759,0.064,-0.148,3.723,-9.338,3.540
13,0.779,0.071,-0.166,5.676,-10.681,3.296
13,0.888,0.079,-0.147,12.390,-11.292,3.662
13,0.944,0.076,-0.138,18.372,-1.526,4.211
13,0.994,0.061,-0.153,20.203,4.822,4.211
13,1.002,0.041,-0.161,19.775,11.047,3.662
13,1.006,0.008,-0.133,19.958,10.986,3.479
13,0.989,0.001,-0.094,24.780,9.827,3.235
13,0.975,0.005,-0.079,27.100,8.606,2.563
13,0.958,0.015,-0.052,25.452,7.324,1.709
13,0.954,0.011,-0.049,15.625,3.113,-0.427
13,0.941,0.018,-0.059,10.559,1.587,-1.038
13,0.926,0.038,-0.076,4.456,1.892,-0.427
13,0.922,0.050,-0.078,5.432,3.601,1.587
13,0.921,0.068,-0.083,8.667,4.395,2.441
13,0.920,0.074,-0.100,11.780,5.432,2.563
13,0.940,0.086,-0.050,10.620,6.653,2.197
13,0.953,0.072,-0.025,5.920,9.583,0.305
13,0.960,0.021,-0.016,3.967,9.888,-0.549
13,0.953,0.006,-0.018,2.014,10.742,-0.610
13,0.926,0.004,-0.030,-0.549,12.512,0.854
13,0.918,0.020,-0.041,-3.479,12.634,1.404
13,0.926,0.027,-0.046,-13.245,9.155,1.160
13,0.948,0.056,-0.025,-17.700,8.545,0.977
13,0.953,0.059,-0.032,-20.630,11.536,0.549
13,0.941,0.047,-0.050,-20.874,11.292,-0.183
13,0.919,0.046,-0.080,-21.606,8.789,-0.671
13,0.919,0.060,-0.077,-21.240,4.272,-2.441
13,0.958,0.082,-0.050,-19.592,4.456,-3.540
13,1.009,0.049,-0.036,-17.029,6.104,-6.348
13,1.029,0.031,-0.033,-15.381,4.944,-8.911
13,1.077,0.010,-0.032,-14.954,3.296,-9.949
13,1.104,0.007,-0.030,-15.991,-0.244,-12.390
13,1.144,0.000,-0.037,-20.691,-3.357,-15.564
13,1.165,-0.021,-0.011,-23.560,-4.639,-17.151
13,1.177,-0.034,-0.010,-28.503,-6.897,-19.470
13,1.204,-0.020,0.005,-30.518,-7.751,-19.775
13,1.207,-0.006,-0.004,-32.471,-5.737,-19.470
13,1.211,-0.019,-0.141,-35.461,-5.920,-19.226
13,1.237,-0.051,-0.148,-35.889,-11.597,-18.494
13,1.230,-0.053,-0.122,-22.339,-9.766,-18.188
13,1.149,-0.050,-0.119,-19.043,-6.104,-17.944
13,1.010,-0.084,-0.121,-17.944,0.244,-16.907
13,0.930,-0.103,-0.139,-18.555,1.404,-14.587
13,0.807,-0.137,-0.202,-19.714,0.122,-13.062
13,0.783,-0.150,-0.221,-22.949,-4.517,-10.681
13,0.782,-0.145,-0.210,-27.954,-7.507,-7.629
13,0.801,-0.120,-0.214,-30.823,-6.165,-5.920
13,0.828,-0.118,-0.218,-28.015,-0.671,-4.456
13,0.895,-0.136,-0.202,-25.085,1.770,-4.639
13,0.948,-0.142,-0.192,-26.062,3.052,-4.272
13,0.980,-0.132,-0.177,-28.748,1.221,-2.747
13,1.036,-0.108,-0.135,-26.611,2.258,-2.075
13,1.040,-0.109,-0.144,-24.719,7.202,-1.221
13,1.002,-0.122,-0.145,-23.499,8.423,-1.099
13,0.953,-0.140,-0.115,-19.958,7.446,-1.343
13,0.935,-0.142,-0.085,-14.099,4.517,-1.648
13,0.929,-0.147,-0.034,-11.414,3.601,-1.648
13,0.937,-0.146,-0.057,-9.338,1.587,-1.099
13,0.974,-0.122,-0.078,-10.254,0.061,-0.305
13,0.994,-0.120,-0.065,-11.902,1.221,1.770
14,0.727,0.043,-0.208,31.250,3.113,7.385
14,0.734,0.090,-0.195,30.579,1.221,7.629
14,0.796,0.100,-0.194,27.222,-2.380,7.568
14,0.959,0.078,-0.168,23.254,-2.258,7.507
14,1.015,0.052,-0.172,16.968,3.601,6.897
14,1.040,0.029,-0.206,18.921,6.287,6.714
14,1.023,0.045,-0.175,27.832,8.484,7.996
14,1.016,0.060,-0.140,31.555,7.202,9.277
14,1.014,0.061,-0.090,29.663,6.165,8.484
14,1.006,0.042,-0.080,22.888,5.127,5.554
14,0.961,0.011,-0.077,20.203,5.127,4.700
14,0.932,0.006,-0.083,17.517,4.822,4.150
14,0.884,0.026,-0.104,15.991,4.517,4.089
14,0.880,0.047,-0.111,11.169,4.333,4.272
14,0.912,0.084,-0.101,9.094,4.517,4.456
14,0.934,0.093,-0.093,6.958,6.714,5.066
14,0.962,0.091,-0.098,6.287,8.484,5.615
14,0.966,0.085,-0.104,4.639,11.230,7.507
14,0.965,0.083,-0.117,4.761,11.536,8.728
14,0.967,0.084,-0.118,8.423,10.559,10.071
14,0.971,0.099,-0.109,10.315,10.071,9.705
14,0.969,0.099,-0.104,8.972,9.155,6.836
14,0.958,0.073,-0.087,6.165,8.545,5.188
14,0.944,0.058,-0.076,-0.061,6.775,3.113
14,0.915,0.038,-0.068,-2.991,5.920,2.869
14,0.909,0.037,-0.086,-6.592,4.761,2.625
14,0.928,0.046,-0.094,-7.385,3.662,2.197
14,0.942,0.052,-0.076,-12.146,2.014,1.343
14,0.964,0.060,-0.092,-16.113,1.831,0.671
14,0.979,0.051,-0.094,-19.531,1.892,-1.282
14,0.989,0.047,-0.043,-18.616,2.380,-1.953
14,0.983,0.052,-0.037,-17.212,2.991,-2.502
14,0.977,0.052,-0.072,-17.151,1.831,-2.747
14,0.988,0.054,-0.077,-17.578,-1.526,-2.869
14,1.022,0.048,-0.062,-17.151,-1.953,-3.296
14,1.041,0.035,-0.055,-16.541,-1.038,-4.883
14,1.045,0.032,-0.053,-18.066,-1.343,-6.836
14,1.041,0.038,-0.041,-18.921,-1.648,-7.874
14,1.034,0.043,-0.038,-20.386,-1.770,-9.644
14,1.025,0.041,-0.035,-21.301,-1.831,-10.498
14,1.027,0.029,-0.027,-23.804,-1.953,-12.146
14,1.047,-0.002,-0.036,-25.085,-2.380,-13.123
14,1.066,-0.008,-0.044,-25.574,-5.676,-14.221
14,1.117,0.017,-0.015,-24.597,-7.446,-14.404
14,1.133,0.027,-0.005,-25.757,-10.620,-16.174
14,1.141,0.008,-0.026,-27.100,-12.329,-17.639
14,1.136,-0.012,-0.084,-24.902,-17.761,-19.348
14,1.160,-0.012,-0.178,-21.851,-21.912,-18.372
14,1.234,0.030,-0.145,-17.212,-27.222,-14.282
14,1.238,0.047,-0.123,-15.747,-24.963,-12.756
14,1.156,0.007,-0.146,-10.437,-10.376,-12.756
14,1.083,-0.048,-0.156,-7.935,2.686,-13.367
14,0.901,-0.127,-0.146,-8.423,5.859,-12.390
14,0.821,-0.133,-0.151,-8.301,6.531,-9.338
14,0.752,-0.124,-0.211,-9.888,3.845,-7.935
14,0.767,-0.108,-0.226,-17.212,-3.418,-4.578
14,0.847,-0.072,-0.211,-22.400,-3.174,-1.709
14,0.910,-0.071,-0.206,-24.475,-1.038,-1.221
14,0.924,-0.076,-0.200,-25.635,2.380,-1.526
14,0.937,-0.083,-0.217,-24.963,2.930,-1.770
14,0.971,-0.077,-0.195,-24.475,0.305,-1.526
14,0.993,-0.068,-0.157,-25.330,-0.732,-0.488
14,1.023,-0.054,-0.128,-26.367,0.122,-0.122
14,1.024,-0.053,-0.136,-27.283,3.052,0.732
14,0.991,-0.059,-0.132,-26.001,5.066,1.465
14,0.963,-0.057,-0.128,-19.043,8.118,3.235
14,0.919,-0.045,-0.091,-10.071,9.094,4.211
14,0.897,-0.059,-0.043,-7.263,9.460,4.456
14,0.893,-0.066,-0.065,-5.188,8.484,4.883
14,0.918,-0.071,-0.109,-4.089,6.958,5.127
14,0.947,-0.072,-0.091,-0.854,5.432,5.920
14,0.947,-0.074,-0.094,4.211,5.371,6.470
14,0.943,-0.072,-0.096,7.324,4.578,6.836
14,0.946,-0.072,-0.083,12.146,4.028,7.507
14,0.949,-0.079,-0.071,13.000,4.639,7.446
14,0.947,-0.077,-0.076,14.526,6.409,7.141
14,0.941,-0.078,-0.070,15.503,7.080,7.019
14,0.929,-0.100,-0.053,18.433,8.301,6.165
14,0.928,-0.107,-0.054,17.456,6.531,5.493
14,0.937,-0.088,-0.066,15.625,4.517,5.737
14,0.948,-0.072,-0.072,15.076,1.648,6.958
14,0.977,-0.045,-0.068,17.273,1.343,7.568
14,0.997,-0.041,-0.060,22.888,1.709,7.690
14,1.040,-0.058,-0.039,23.865,1.892,7.202
14,1.056,-0.074,-0.047,23.071,1.099,6.042
14,1.061,-0.074,-0.050,23.987,-0.305,5.371
14,1.045,-0.071,-0.052,25.146,0.000,5.249
14,1.029,-0.074,-0.038,27.161,1.831,5.127
14,1.002,-0.086,-0.017,27.466,2.014,4.883
14,0.992,-0.097,-0.004,23.560,-1.282,4.150
14,0.992,-0.093,-0.022,17.212,-7.446,3.662
14,1.040,-0.043,-0.070,14.343,-11.658,3.845
14,1.090,-0.011,-0.036,14.099,-15.015,5.127
14,1.164,-0.005,-0.018,15.686,-13.306,5.310
14,1.190,-0.032,-0.052,16.479,-14.221,4.517
14,1.230,-0.054,-0.088,16.113,-17.029,4.517
14,1.227,-0.023,-0.119,15.686,-19.653,5.737
14,1.213,0.002,-0.138,17.273,-17.517,7.080
14,1.154,0.062,-0.148,19.714,-14.465,7.324
14,1.108,0.082,-0.147,22.949,-7.080,5.432
14,0.995,0.080,-0.149,21.973,-5.127,3.174
14,0.933,0.072,-0.163,16.541,-6.165,-0.732
14,0.844,0.090,-0.169,15.442,-7.568,-1.160
14,0.809,0.123,-0.188,21.301,-8.240,-1.160
14,0.824,0.135,-0.194,27.100,-6.836,-0.549
14,0.906,0.139,-0.206,30.579,-4.883,0.061
14,0.951,0.133,-0.197,35.278,-0.305,0.732
14,0.994,0.114,-0.168,35.950,1.953,0.916
14,0.984,0.101,-0.187,31.860,4.028,1.892
14,0.959,0.071,-0.177,31.250,3.418,2.930
14,0.957,0.060,-0.125,35.645,2.563,4.944
14,0.946,0.052,-0.095,36.865,2.258,5.310
14,0.946,0.052,-0.115,32.654,-1.160,4.822
14,0.958,0.056,-0.111,29.053,-2.686,4.272
14,0.948,0.061,-0.097,22.522,-0.488,3.418
14,0.900,0.072,-0.098,20.447,2.380,3.235
14,0.883,0.076,-0.100,17.700,6.714,3.479
14,0.881,0.073,-0.091,15.747,7.568,3.784
14,0.892,0.069,-0.085,10.925,7.507,4.700
14,0.922,0.071,-0.085,8.057,7.385,5.432
14,0.941,0.085,-0.084,3.357,9.094,7.080
14,0.976,0.106,-0.086,2.136,10.315,7.202
14,0.985,0.108,-0.086,0.488,11.658,5.981
14,0.975,0.106,-0.073,-0.549,12.085,5.188
14,0.964,0.098,-0.074,-3.174,12.512,3.845
14,0.942,0.073,-0.061,-5.066,12.085,3.418
14,0.930,0.065,-0.060,-8.911,11.719,2.930
14,0.915,0.059,-0.080,-11.230,11.353,2.625
14,0.916,0.060,-0.080,-16.357,10.620,1.953
14,0.930,0.077,-0.075,-18.616,10.315,1.648
14,0.960,0.094,-0.066,-21.790,10.559,0.977
14,0.976,0.094,-0.057,-25.208,10.681,-0.244
14,0.999,0.074,-0.048,-26.672,10.254,-1.099
14,1.007,0.065,-0.053,-27.832,8.545,-2.258
14,1.020,0.066,-0.078,-28.503,4.944,-3.540
14,1.034,0.071,-0.084,-28.625,2.747,-4.700
14,1.036,0.074,-0.074,-27.771,-0.671,-7.629
14,1.021,0.072,-0.063,-27.527,-1.587,-8.972
14,1.007,0.065,-0.068,-26.917,-2.014,-11.536
14,1.007,0.058,-0.062,-27.039,-3.418,-14.099
14,1.023,0.032,-0.034,-27.100,-4.456,-15.137
14,1.032,0.026,-0.020,-26.978,-6.165,-16.479
14,1.040,0.034,0.002,-26.733,-6.958,-16.785
14,1.065,0.026,-0.005,-24.963,-9.888,-17.883
14,1.092,0.019,-0.007,-24.231,-12.268,-18.433
14,1.144,0.031,-0.019,-21.057,-16.174,-18.860
14,1.163,0.043,0.017,-18.738,-18.799,-19.775
14,1.154,0.028,-0.016,-19.348,-19.653,-20.935
14,1.151,0.009,-0.099,-19.226,-27.222,-22.461
14,1.206,-0.000,-0.163,-16.174,-31.921,-20.813
14,1.247,0.022,-0.106,-7.690,-30.457,-15.015
14,1.222,0.018,-0.126,-1.038,-16.541,-14.038
14,1.096,-0.051,-0.181,-0.732,-9.766,-14.648
14,0.886,-0.138,-0.151,-5.432,-1.282,-14.404
14,0.787,-0.155,-0.135,-5.859,4.089,-11.658
14,0.687,-0.153,-0.168,-5.554,4.517,-10.315
14,0.744,-0.124,-0.180,-10.315,0.000,-7.324
14,0.799,-0.103,-0.172,-17.151,-2.625,-4.761
14,0.897,-0.083,-0.178,-20.264,-1.160,-3.906
14,0.953,-0.085,-0.173,-23.254,2.991,-2.930
14,0.975,-0.085,-0.170,-17.578,5.798,-1.404
14,1.027,-0.073,-0.131,-13.367,6.775,-0.366
14,1.049,-0.070,-0.111,-9.644,8.301,0.610
14,1.060,-0.070,-0.104,-11.597,7.629,0.183
14,1.016,-0.079,-0.116,-15.991,5.920,-1.404
14,0.977,-0.078,-0.122,-14.160,6.104,-1.282
14,0.917,-0.080,-0.073,-11.902,7.019,-0.549
14,0.899,-0.086,-0.053,-6.348,8.606,0.610
14,0.892,-0.088,-0.067,-3.967,8.423,1.221
14,0.907,-0.089,-0.076,-0.305,7.507,2.136
14,0.937,-0.111,-0.073,0.427,7.629,2.075
14,0.944,-0.123,-0.068,0.671,8.240,1.770
14,0.943,-0.132,-0.069,1.587,8.423,1.831
14,0.936,-0.115,-0.080,6.226,9.094,2.502
14,0.935,-0.108,-0.082,10.620,9.705,2.747
14,0.936,-0.104,-0.072,11.658,9.888,2.441
14,0.937,-0.106,-0.068,10.559,9.644,1.648
14,0.932,-0.100,-0.056,9.583,9.521,1.587
14,0.930,-0.097,-0.054,12.146,10.498,1.953
14,0.927,-0.091,-0.067,15.259,11.108,2.258
14,0.933,-0.090,-0.070,19.897,10.742,2.930
14,0.956,-0.093,-0.056,20.569,9.949,3.235
14,0.981,-0.090,-0.047,20.081,8.545,4.211
14,0.994,-0.084,-0.048,20.081,8.301,5.188
14,1.025,-0.076,-0.065,19.470,8.728,7.385
14,1.032,-0.080,-0.093,22.278,9.277,7.751
14,1.043,-0.085,-0.078,25.391,9.033,7.874
14,1.041,-0.087,-0.063,26.428,7.507,8.728
14,1.045,-0.094,-0.056,24.902,5.920,9.216
14,1.054,-0.100,-0.045,25.940,2.563,9.460
14,1.058,-0.108,-0.001,27.222,1.221,9.216
14,1.045,-0.110,-0.007,27.222,-3.967,7.324
14,1.019,-0.103,-0.021,26.062,-7.874,6.226
14,1.011,-0.101,-0.019,24.536,-14.343,4.761
14,1.021,-0.072,-0.070,22.949,-17.822,4.883
14,1.095,-0.010,-0.016,22.400,-21.912,7.324
14,1.116,-0.013,-0.028,23.987,-20.264,7.812
14,1.132,-0.043,-0.134,23.010,-20.386,6.958
14,1.151,-0.035,-0.151,22.522,-24.963,8.606
14,1.193,0.005,-0.149,24.048,-24.231,10.437
15,1.237,-0.027,-0.107,-3.723,-13.794,-18.494
15,1.263,-0.050,-0.096,-1.343,-19.958,-17.273
15,1.286,-0.036,-0.091,0.916,-20.447,-16.785
15,1.258,-0.006,-0.113,4.456,-15.381,-17.517
15,1.135,0.016,-0.160,1.831,-11.353,-17.944
15,1.051,-0.016,-0.169,-7.751,-4.333,-18.311
15,0.858,-0.099,-0.186,-8.728,-1.892,-17.883
15,0.722,-0.140,-0.187,-3.418,-1.282,-14.038
15,0.685,-0.128,-0.173,-2.502,-6.836,-7.324
15,0.708,-0.100,-0.133,-4.822,-9.521,-4.639
15,0.756,-0.100,-0.143,-11.658,-10.620,-2.319
15,0.865,-0.113,-0.163,-14.771,-9.399,-2.197
15,0.906,-0.136,-0.169,-16.846,-5.859,-3.052
15,0.944,-0.160,-0.179,-16.602,-4.211,-2.686
15,0.970,-0.117,-0.157,-15.076,-1.465,0.488
15,0.992,-0.089,-0.118,-15.137,1.587,3.235
15,1.032,-0.073,-0.087,-16.113,3.235,3.174
15,1.045,-0.099,-0.102,-19.592,4.517,1.404
15,1.030,-0.109,-0.102,-18.250,4.883,0.122
15,0.974,-0.102,-0.089,-15.198,5.554,0.366
15,0.942,-0.086,-0.082,-8.606,6.958,2.136
15,0.896,-0.061,-0.067,-1.709,8.179,3.540
15,0.881,-0.058,-0.075,0.488,8.606,3.967
15,0.890,-0.068,-0.087,1.953,8.118,4.944
15,0.916,-0.093,-0.095,3.662,7.568,5.615
15,0.926,-0.099,-0.087,9.155,7.690,7.568
15,0.943,-0.099,-0.068,12.268,8.240,8.484
15,0.954,-0.099,-0.062,16.418,8.484,8.728
15,0.971,-0.104,-0.067,16.602,7.812,8.240
15,0.975,-0.100,-0.067,15.991,6.897,7.690
15,0.960,-0.095,-0.096,17.212,7.629,7.629
15,0.951,-0.096,-0.099,20.813,8.850,7.690
